PacketCounter,SampleTimeFine,Quat_W,Quat_X,Quat_Y,Quat_Z
1, 555767198, 0.4984849, 0.4960348, -0.36717996, 0.6088033
2, 555783865, 0.49848068, 0.49620825, -0.3675171, 0.6084617
3, 555800532, 0.4983898, 0.4961607, -0.36793628, 0.6083216
4, 555817199, 0.49816993, 0.49608257, -0.36794528, 0.60855985
5, 555833866, 0.49808058, 0.49566945, -0.36779654, 0.60905945
6, 555850533, 0.49814114, 0.49531606, -0.36774787, 0.6093267
7, 555867200, 0.49811727, 0.49499395, -0.3676733, 0.60965306
8, 555883867, 0.4981699, 0.49463013, -0.36768252, 0.60989946
9, 555900534, 0.4981998, 0.4943392, -0.36766556, 0.61012113
10, 555917201, 0.498064, 0.49423975, -0.3675039, 0.61041
11, 555933868, 0.49796298, 0.4940515, -0.36721855, 0.61081636
12, 555950535, 0.49788073, 0.49390417, -0.36701176, 0.6111269
13, 555967202, 0.49787876, 0.493699, -0.36679375, 0.6114249
14, 555983869, 0.4979684, 0.49350056, -0.36665633, 0.61159456
15, 556000536, 0.49803084, 0.4934553, -0.3663814, 0.611745
16, 556017203, 0.49813205, 0.4934087, -0.36619258, 0.6118132
17, 556033870, 0.49825916, 0.49334487, -0.36590663, 0.61193234
18, 556050537, 0.49846, 0.49318138, -0.3656366, 0.6120619
19, 556067204, 0.49852666, 0.4931938, -0.36532745, 0.6121822
20, 556083871, 0.49856135, 0.4932307, -0.3648792, 0.61239153
21, 556100538, 0.49872598, 0.493131, -0.36453143, 0.612545
22, 556117205, 0.49864304, 0.4933542, -0.36405212, 0.6127177
23, 556133872, 0.498314, 0.4937885, -0.36334103, 0.61305755
24, 556150539, 0.49822852, 0.49387428, -0.3626591, 0.6134616
25, 556167206, 0.49810258, 0.49406877, -0.3621481, 0.6137089
26, 556183873, 0.49781808, 0.49450392, -0.36185184, 0.61376417
27, 556200540, 0.49747768, 0.49493724, -0.36142918, 0.6139398
28, 556217207, 0.49740374, 0.49507442, -0.36092147, 0.6141878
29, 556233874, 0.4973133, 0.49522024, -0.36065462, 0.61430013
30, 556250541, 0.49703777, 0.49560848, -0.36042976, 0.61434215
31, 556267208, 0.49683735, 0.49590343, -0.36011228, 0.6144523
32, 556283875, 0.49708447, 0.4956774, -0.35969442, 0.61467963
33, 556300542, 0.49695516, 0.49587905, -0.35963845, 0.6146541
34, 556317209, 0.4963385, 0.49665716, -0.35951403, 0.6145969
35, 556333876, 0.4962547, 0.4967311, -0.35912457, 0.61483264
36, 556350543, 0.49665254, 0.49636832, -0.35889158, 0.6149403
37, 556367210, 0.49654624, 0.49666366, -0.35883886, 0.61481845
38, 556383877, 0.49633792, 0.49689588, -0.3589595, 0.6147287
39, 556400544, 0.49640766, 0.4967119, -0.3590656, 0.61475897
40, 556417211, 0.49652702, 0.4965573, -0.35914248, 0.6147427
41, 556433878, 0.49640337, 0.49674475, -0.3593426, 0.6145741
42, 556450545, 0.49629477, 0.49690467, -0.35947224, 0.61445665
43, 556467212, 0.49628112, 0.4969211, -0.3595309, 0.6144201
44, 556483879, 0.49626458, 0.49694565, -0.3596945, 0.61431783
45, 556500546, 0.4961417, 0.49714836, -0.35986355, 0.6141539
46, 556517213, 0.4961277, 0.4972466, -0.35991713, 0.61405444
47, 556533880, 0.49634594, 0.4971457, -0.36003244, 0.61389226
48, 556550547, 0.49644366, 0.4972015, -0.36009234, 0.6137329
49, 556567214, 0.49621892, 0.49759343, -0.36006317, 0.61361414
50, 556583881, 0.49633488, 0.49757403, -0.35998985, 0.61357903
51, 556600548, 0.49654225, 0.49745393, -0.36011106, 0.6134376
52, 556617215, 0.49632806, 0.49784157, -0.36000744, 0.61335725
53, 556633882, 0.49628776, 0.4979621, -0.36003372, 0.6132765
54, 556650549, 0.49633324, 0.49798775, -0.3600274, 0.6132225
55, 556667216, 0.49630505, 0.49814123, -0.3600868, 0.61308575
56, 556683883, 0.49617937, 0.49839044, -0.3601012, 0.61297655
57, 556700550, 0.49624303, 0.49843237, -0.35999408, 0.6129538
58, 556717217, 0.49632546, 0.4984542, -0.35999352, 0.6128696
59, 556733884, 0.49609566, 0.4988285, -0.3600378, 0.6127252
60, 556750551, 0.49602553, 0.49900535, -0.36021414, 0.6125344
61, 556767218, 0.4961427, 0.49895576, -0.36028147, 0.61244017
62, 556783885, 0.49625817, 0.4989737, -0.36037496, 0.61227703
63, 556800552, 0.4962222, 0.49918956, -0.36053607, 0.6120352
64, 556817219, 0.4962724, 0.49925226, -0.36064485, 0.61187935
65, 556833886, 0.49645922, 0.49911126, -0.36072055, 0.61179817
66, 556850553, 0.4965008, 0.49918705, -0.36098728, 0.6115453
67, 556867220, 0.49657512, 0.49926972, -0.36127928, 0.61124474
68, 556883887, 0.49681735, 0.4991817, -0.3615611, 0.6109533
69, 556900554, 0.49693722, 0.4992582, -0.3619268, 0.6105768
70, 556917221, 0.49693862, 0.49948874, -0.36222622, 0.6102092
71, 556933888, 0.49711242, 0.49949178, -0.36241022, 0.6099559
72, 556950555, 0.4973257, 0.49943078, -0.3626181, 0.60970837
73, 556967222, 0.49733457, 0.4995387, -0.36277506, 0.6095192
74, 556983889, 0.49730116, 0.4996945, -0.36294946, 0.609315
75, 557000556, 0.49746025, 0.499657, -0.3630561, 0.6091524
76, 557017223, 0.49745053, 0.49980792, -0.3631888, 0.6089574
77, 557033890, 0.49739003, 0.49996564, -0.36337066, 0.6087689
78, 557050557, 0.4974286, 0.49996924, -0.36368516, 0.60854644
79, 557067224, 0.49760783, 0.4998168, -0.3638982, 0.6083977
80, 557083891, 0.4976915, 0.49980488, -0.36428842, 0.6081056
81, 557100558, 0.49766532, 0.49986047, -0.36459154, 0.60789955
82, 557117225, 0.4979249, 0.49964926, -0.36494994, 0.6076456
83, 557133892, 0.49845612, 0.49923363, -0.36515096, 0.6074308
84, 557150559, 0.49869457, 0.4990717, -0.36548603, 0.6071666
85, 557167226, 0.49861756, 0.49926713, -0.36598215, 0.6067702
86, 557183893, 0.49869037, 0.4992376, -0.3662202, 0.6065911
87, 557200560, 0.4995047, 0.49841058, -0.36655557, 0.6063985
88, 557217227, 0.50005305, 0.49790317, -0.36701724, 0.606084
89, 557233894, 0.5001328, 0.4977877, -0.36742008, 0.605869
90, 557250561, 0.5004506, 0.4973129, -0.3679285, 0.6056878
91, 557267228, 0.5008988, 0.4967214, -0.3682673, 0.6055969
92, 557283895, 0.501184, 0.49636087, -0.36866236, 0.6054163
93, 557300562, 0.501523, 0.49589315, -0.36914742, 0.60522324
94, 557317229, 0.50195265, 0.4952119, -0.36950308, 0.6052077
95, 557333896, 0.50226533, 0.49468744, -0.3697911, 0.60520136
96, 557350563, 0.50236726, 0.49442518, -0.370089, 0.6051488
97, 557367230, 0.5024801, 0.49414366, -0.3703696, 0.60511345
98, 557383897, 0.50270295, 0.49373075, -0.37060773, 0.60511965
99, 557400564, 0.50283754, 0.49343053, -0.37082702, 0.60511816
100, 557417231, 0.50278777, 0.49334234, -0.3712661, 0.6049624
101, 557433898, 0.5031335, 0.49278322, -0.37175718, 0.6048291
102, 557450565, 0.5035826, 0.4921344, -0.3720513, 0.60480267
103, 557467232, 0.5038, 0.49179384, -0.37236708, 0.6047043
104, 557483899, 0.50387925, 0.4915668, -0.37272832, 0.6046002
105, 557500566, 0.50412154, 0.4911411, -0.37311164, 0.6045077
106, 557517233, 0.5043476, 0.49071348, -0.373441, 0.60446316
107, 557533900, 0.50460863, 0.4902896, -0.3738184, 0.604356
108, 557550567, 0.50477624, 0.4899788, -0.3741901, 0.60423815
109, 557567234, 0.5050132, 0.489586, -0.37465328, 0.6040713
110, 557583901, 0.50522405, 0.48917446, -0.3749157, 0.6040658
111, 557600568, 0.5053427, 0.4887956, -0.37495476, 0.60424894
112, 557617235, 0.50553334, 0.48836395, -0.37522095, 0.60427326
113, 557633902, 0.5055082, 0.48818472, -0.37545845, 0.6042913
114, 557650569, 0.5054634, 0.4880136, -0.37557846, 0.60439265
115, 557667236, 0.5055392, 0.48774615, -0.3758365, 0.6043847
116, 557683903, 0.5057318, 0.48736465, -0.376235, 0.6042833
117, 557700570, 0.5058442, 0.48709205, -0.37652025, 0.6042314
118, 557717237, 0.50587654, 0.48691875, -0.3766738, 0.60424834
119, 557733904, 0.505852, 0.4868596, -0.37686104, 0.60419965
120, 557750571, 0.5057949, 0.48684907, -0.37691313, 0.6042236
121, 557767238, 0.505683, 0.48692656, -0.3768825, 0.6042738
122, 557783905, 0.5055507, 0.48705408, -0.3768253, 0.6043175
123, 557800572, 0.5053003, 0.4872921, -0.376572, 0.60449284
124, 557817239, 0.5051345, 0.48747993, -0.3764047, 0.60458434
125, 557833906, 0.50481755, 0.48788375, -0.37613142, 0.60469335
126, 557850573, 0.5045058, 0.4882767, -0.3758654, 0.60480183
127, 557867240, 0.50428265, 0.48852664, -0.3756504, 0.6049196
128, 557883907, 0.50398105, 0.48885667, -0.3754, 0.6050596
129, 557900574, 0.5036033, 0.48929211, -0.37513962, 0.6051839
130, 557917241, 0.5033365, 0.48957217, -0.3747798, 0.6054021
131, 557933908, 0.5030963, 0.48978508, -0.37435102, 0.60569465
132, 557950575, 0.50273454, 0.4901695, -0.37412205, 0.6058257
133, 557967242, 0.5026769, 0.4903367, -0.37383485, 0.6059154
134, 557983909, 0.5026024, 0.49051058, -0.37351888, 0.60603136
135, 558000576, 0.50230205, 0.4908505, -0.3732179, 0.6061907
136, 558017243, 0.501893, 0.49134022, -0.372907, 0.6063238
137, 558033910, 0.5020943, 0.49122044, -0.37279528, 0.60632306
138, 558050577, 0.5023937, 0.4910575, -0.37273458, 0.60624427
139, 558067244, 0.502323, 0.49119756, -0.372695, 0.60621375
140, 558083911, 0.50211406, 0.4913587, -0.37270314, 0.6062513
141, 558100578, 0.5021547, 0.4912625, -0.37274325, 0.606271
142, 558117245, 0.5021634, 0.4912722, -0.37280655, 0.6062169
143, 558133912, 0.5021659, 0.4913043, -0.37279844, 0.6061938
144, 558150579, 0.50219005, 0.49126887, -0.37280315, 0.6061996
145, 558167246, 0.50217414, 0.4912707, -0.372888, 0.60615915
146, 558183913, 0.5020689, 0.49138948, -0.3729048, 0.60613966
147, 558200580, 0.50208986, 0.49139017, -0.37286562, 0.60614586
148, 558217247, 0.50208855, 0.49140218, -0.37281847, 0.60616636
149, 558233914, 0.50213945, 0.49135882, -0.3728402, 0.606146
150, 558250581, 0.5020629, 0.49140623, -0.37279108, 0.606201
151, 558267248, 0.50189275, 0.49155807, -0.3726646, 0.6062966
152, 558283915, 0.5018658, 0.49151862, -0.3725447, 0.60642445
153, 558300582, 0.5018003, 0.4915533, -0.3723653, 0.6065608
154, 558317249, 0.50171566, 0.49158505, -0.37221926, 0.60669476
155, 558333916, 0.5016693, 0.49155018, -0.3721507, 0.60680354
156, 558350583, 0.5016096, 0.4914963, -0.37195688, 0.6070152
157, 558367250, 0.50153273, 0.4914818, -0.3718965, 0.60712755
158, 558383917, 0.50139004, 0.49157318, -0.37184384, 0.60720354
159, 558400584, 0.501298, 0.4916086, -0.37170026, 0.60733867
160, 558417251, 0.50143754, 0.49138665, -0.37160188, 0.60746324
161, 558433918, 0.5014383, 0.49131042, -0.37136585, 0.6076687
162, 558450585, 0.50136036, 0.491316, -0.37120026, 0.60782963
163, 558467252, 0.5013397, 0.49124065, -0.3710842, 0.6079785
164, 558483919, 0.5013096, 0.49114686, -0.37095222, 0.6081596
165, 558500586, 0.5012204, 0.4911372, -0.37086394, 0.6082946
166, 558517253, 0.5010616, 0.4912094, -0.3707899, 0.60841244
167, 558533920, 0.50095177, 0.49118453, -0.37061605, 0.60862887
168, 558550587, 0.5009376, 0.49102634, -0.3704869, 0.6088467
169, 558567254, 0.5007521, 0.49107438, -0.37033036, 0.60905564
170, 558583921, 0.5006225, 0.4910591, -0.37018925, 0.6092603
171, 558600588, 0.50054526, 0.49101084, -0.37003818, 0.60945445
172, 558617255, 0.5005132, 0.49095416, -0.3699343, 0.6095894
173, 558633922, 0.5004657, 0.49094468, -0.36986607, 0.60967743
174, 558650589, 0.5005486, 0.49078482, -0.36978388, 0.60978806
175, 558667256, 0.5006785, 0.4905344, -0.36974224, 0.609908
176, 558683923, 0.50076354, 0.49037662, -0.36973113, 0.6099719
177, 558700590, 0.5007609, 0.49038416, -0.36981398, 0.60991764
178, 558717257, 0.50073475, 0.49042478, -0.36982238, 0.60990125
179, 558733924, 0.500787, 0.49036777, -0.36971164, 0.6099714
180, 558750591, 0.50084376, 0.49029392, -0.3696857, 0.6099999
181, 558767258, 0.5007973, 0.49034497, -0.36967206, 0.6100053
182, 558783925, 0.5007277, 0.49040672, -0.36964542, 0.61002904
183, 558800592, 0.50068784, 0.4904452, -0.3696932, 0.6100018
184, 558817259, 0.50084394, 0.49034548, -0.36961514, 0.61000115
185, 558833926, 0.50096256, 0.49025428, -0.36961758, 0.60997546
186, 558850593, 0.5007925, 0.49044392, -0.3697251, 0.6098976
187, 558867260, 0.500461, 0.49081174, -0.36964405, 0.609923
188, 558883927, 0.5006934, 0.49061438, -0.36943412, 0.6100184
189, 558900594, 0.50103194, 0.4903509, -0.36941975, 0.609961
190, 558917261, 0.5009164, 0.4905185, -0.3693789, 0.60994554
191, 558933928, 0.50081724, 0.49054715, -0.36953002, 0.6099124
192, 558950595, 0.50082296, 0.49052536, -0.3696019, 0.60988176
193, 558967262, 0.5008117, 0.49057183, -0.36960432, 0.60985214
194, 558983929, 0.50079864, 0.49061936, -0.3696556, 0.60979354
195, 559000596, 0.50071585, 0.49071804, -0.36958727, 0.6098235
196, 559017263, 0.50079876, 0.4906259, -0.3694413, 0.609918
197, 559033930, 0.50079376, 0.49064633, -0.36940163, 0.60992974
198, 559050597, 0.5007055, 0.49083444, -0.36942893, 0.6098343
199, 559067264, 0.50073504, 0.49089837, -0.36945578, 0.60974216
200, 559083931, 0.5009297, 0.49074897, -0.3695747, 0.6096307
201, 559100598, 0.50089425, 0.49083772, -0.3696792, 0.6095249
202, 559117265, 0.5008285, 0.49096966, -0.3696134, 0.6095126
203, 559133932, 0.50091285, 0.49089333, -0.3695714, 0.60953027
204, 559150599, 0.5008208, 0.49106112, -0.36959645, 0.6094556
205, 559167266, 0.5006722, 0.491245, -0.36964795, 0.60939825
206, 559183933, 0.50058043, 0.49127984, -0.3696676, 0.6094336
207, 559200600, 0.5005841, 0.4912471, -0.3696803, 0.60944927
208, 559217267, 0.5004735, 0.49134794, -0.36972556, 0.60943127
209, 559233934, 0.50029105, 0.4915106, -0.36969316, 0.6094696
210, 559250601, 0.5002558, 0.49148992, -0.36969176, 0.6095161
211, 559267268, 0.5002086, 0.49148753, -0.3696917, 0.60955685
212, 559283935, 0.5001001, 0.4915336, -0.3697931, 0.60954714
213, 559300602, 0.50007945, 0.4914713, -0.37000987, 0.6094828
214, 559317269, 0.500121, 0.49131668, -0.3701723, 0.60947484
215, 559333936, 0.5001745, 0.49115852, -0.37034515, 0.6094533
216, 559350603, 0.50010437, 0.4911157, -0.37056777, 0.60941005
217, 559367270, 0.50003886, 0.49106258, -0.37082896, 0.6093478
218, 559383937, 0.5000141, 0.4909397, -0.37101397, 0.6093544
219, 559400604, 0.49999005, 0.49082375, -0.37125757, 0.6093191
220, 559417271, 0.4999053, 0.49077457, -0.3714818, 0.6092917
221, 559433938, 0.49985892, 0.49068013, -0.37175828, 0.6092372
222, 559450605, 0.49987358, 0.4905349, -0.37196136, 0.60921806
223, 559467272, 0.49991393, 0.490401, -0.3721155, 0.6091987
224, 559483939, 0.49991187, 0.49032247, -0.37228602, 0.60915947
225, 559500606, 0.499899, 0.49024633, -0.3725101, 0.6090944
226, 559517273, 0.49977505, 0.4902701, -0.37274724, 0.60903186
227, 559533940, 0.49970505, 0.49028477, -0.3730124, 0.6089152
228, 559550607, 0.49971312, 0.49018988, -0.3732011, 0.60886925
229, 559567274, 0.499729, 0.49009946, -0.37333673, 0.6088458
230, 559583941, 0.4996447, 0.49015275, -0.37348807, 0.6087793
231, 559600608, 0.49953014, 0.49022654, -0.3736318, 0.6087257
232, 559617275, 0.4994142, 0.49025574, -0.37366545, 0.6087765
233, 559633942, 0.4993726, 0.4902432, -0.37375337, 0.608767
234, 559650609, 0.4995541, 0.49005622, -0.3737659, 0.6087609
235, 559667276, 0.49955052, 0.4900694, -0.37387335, 0.60868716
236, 559683943, 0.49940816, 0.49013466, -0.37402037, 0.60866106
237, 559700610, 0.49917847, 0.49034292, -0.37397778, 0.60870796
238, 559717277, 0.49938804, 0.490136, -0.37378564, 0.60882086
239, 559733944, 0.49958894, 0.49000776, -0.37382945, 0.6087323
240, 559750611, 0.49925914, 0.49037287, -0.3737672, 0.60874695
241, 559767278, 0.49906346, 0.49046645, -0.37376451, 0.6088338
242, 559783945, 0.49897918, 0.4904663, -0.37362567, 0.6089881
243, 559800612, 0.49886498, 0.49056292, -0.37339315, 0.6091465
244, 559817279, 0.4986998, 0.49073052, -0.3733097, 0.6091979
245, 559833946, 0.4986625, 0.4907483, -0.37332627, 0.6092038
246, 559850613, 0.49874723, 0.49061045, -0.37333938, 0.60923743
247, 559867280, 0.49871603, 0.4906819, -0.37333483, 0.60920817
248, 559883947, 0.49857146, 0.4908846, -0.37330592, 0.60918105
249, 559900614, 0.49852157, 0.49099705, -0.37331116, 0.6091281
250, 559917281, 0.4985853, 0.49099743, -0.3733103, 0.609076
251, 559933948, 0.49843815, 0.4912287, -0.37333286, 0.60899633
252, 559950615, 0.4982944, 0.4914308, -0.37325758, 0.60899705
253, 559967282, 0.49822095, 0.49149972, -0.37303582, 0.60913724
254, 559983949, 0.49819168, 0.49158862, -0.3727469, 0.6092662
255, 560000616, 0.4981068, 0.49172586, -0.37255374, 0.60934305
256, 560017283, 0.49801433, 0.49182442, -0.37247697, 0.6093861
257, 560033950, 0.4979865, 0.49184448, -0.3724541, 0.60940665
258, 560050617, 0.4980006, 0.49182862, -0.37241706, 0.60943055
259, 560067284, 0.4980691, 0.49183655, -0.37231454, 0.60943073
260, 560083951, 0.4980606, 0.49194095, -0.37218592, 0.609432
261, 560100618, 0.4979951, 0.49210435, -0.3721112, 0.60939926
262, 560117285, 0.49796954, 0.49221766, -0.37204728, 0.6093678
263, 560133952, 0.4980455, 0.49221373, -0.3719498, 0.60936826
264, 560150619, 0.49803558, 0.49230304, -0.37187093, 0.60935235
265, 560167286, 0.4980064, 0.49242604, -0.37194127, 0.6092339
266, 560183953, 0.49795586, 0.49252665, -0.37198266, 0.60916865
267, 560200620, 0.4979892, 0.49251777, -0.3717726, 0.60927683
268, 560217287, 0.49814898, 0.49238968, -0.37172627, 0.6092781
269, 560233954, 0.49810258, 0.4925398, -0.37171036, 0.6092043
270, 560250621, 0.49810883, 0.49261352, -0.3717069, 0.60914165
271, 560267288, 0.49820036, 0.49256015, -0.37173706, 0.60909164
272, 560283955, 0.498284, 0.49253955, -0.37179026, 0.6090073
273, 560300622, 0.49831983, 0.492587, -0.37185398, 0.6089007
274, 560317289, 0.4983621, 0.49263567, -0.37190652, 0.6087947
275, 560333956, 0.4984696, 0.49262086, -0.37200198, 0.60866034
276, 560350623, 0.49860996, 0.49256736, -0.37210846, 0.60852355
277, 560367290, 0.49868095, 0.4925888, -0.37213716, 0.6084303
278, 560383957, 0.4986167, 0.49276128, -0.3721272, 0.60834944
279, 560400624, 0.49860838, 0.49283078, -0.37216744, 0.6082754
280, 560417291, 0.49853095, 0.49296862, -0.37219003, 0.6082135
281, 560433958, 0.49846935, 0.49309304, -0.37222055, 0.6081443
282, 560450625, 0.4983535, 0.49320728, -0.37209612, 0.6082227
283, 560467292, 0.49817854, 0.49340093, -0.3721158, 0.608197
284, 560483959, 0.49820396, 0.4934066, -0.3718834, 0.60831374
285, 560500626, 0.49827275, 0.49330986, -0.37190455, 0.6083229
286, 560517293, 0.4980723, 0.49353918, -0.37200716, 0.6082381
287, 560533960, 0.49774164, 0.49389777, -0.37187687, 0.60829747
288, 560550627, 0.49794635, 0.49365273, -0.37167814, 0.60845035
289, 560567294, 0.49805436, 0.49358588, -0.3715742, 0.6084797
290, 560583961, 0.49781197, 0.4938089, -0.3715501, 0.60851175
291, 560600628, 0.49773815, 0.4937358, -0.3715632, 0.6086235
292, 560617295, 0.4977097, 0.4936616, -0.37158012, 0.6086965
293, 560633962, 0.49758103, 0.49374643, -0.37158522, 0.60872996
294, 560650629, 0.49750137, 0.49380946, -0.37155104, 0.60876465
295, 560667296, 0.49746066, 0.49380472, -0.37146625, 0.6088537
296, 560683963, 0.49736452, 0.49383417, -0.37119496, 0.6090737
297, 560700630, 0.49725908, 0.49386454, -0.37108788, 0.6092004
298, 560717297, 0.4970363, 0.4941052, -0.3710151, 0.6092313
299, 560733964, 0.49695402, 0.4941814, -0.3709011, 0.60930604
300, 560750631, 0.4969604, 0.49413905, -0.37077472, 0.60941213
301, 560767298, 0.4968032, 0.49428505, -0.37076455, 0.6094281
302, 560783965, 0.49667487, 0.49437213, -0.3707428, 0.6094754
303, 560800632, 0.49680227, 0.49416608, -0.37079066, 0.6095096
304, 560817299, 0.49688756, 0.49406812, -0.3708271, 0.60949713
305, 560833966, 0.49678564, 0.49417597, -0.37093, 0.60943013
306, 560850633, 0.49677083, 0.49414346, -0.3710156, 0.6094165
307, 560867300, 0.4968678, 0.49399155, -0.37104368, 0.6094435
308, 560883967, 0.49692306, 0.4939094, -0.3711026, 0.6094291
309, 560900634, 0.4968746, 0.4939886, -0.37109673, 0.60940796
310, 560917301, 0.4968832, 0.49396268, -0.37112266, 0.60940635
311, 560933968, 0.49703455, 0.49380073, -0.37124002, 0.60934275
312, 560950635, 0.49713954, 0.49366906, -0.37141147, 0.60925925
313, 560967302, 0.49732062, 0.49346125, -0.3714816, 0.60923713
314, 560983969, 0.4974593, 0.49329787, -0.37153485, 0.6092236
315, 561000636, 0.49748933, 0.4932303, -0.37156135, 0.6092376
316, 561017303, 0.4975388, 0.49312162, -0.37158167, 0.60927284
317, 561033970, 0.49761337, 0.4929708, -0.3715527, 0.60935175
318, 561050637, 0.49764636, 0.49288347, -0.37158835, 0.6093735
319, 561067304, 0.49765056, 0.4928512, -0.37161973, 0.60937715
320, 561083971, 0.49762514, 0.49281296, -0.37156993, 0.6094592
321, 561100638, 0.49765548, 0.4927409, -0.3714985, 0.6095363
322, 561117305, 0.49763474, 0.49275136, -0.37140414, 0.6096021
323, 561133972, 0.49766275, 0.49269408, -0.3713186, 0.60967773
324, 561150639, 0.49767697, 0.49260977, -0.3712183, 0.60979545
325, 561167306, 0.49772784, 0.49243572, -0.37118113, 0.609917
326, 561183973, 0.49783033, 0.49220598, -0.3712236, 0.6099929
327, 561200640, 0.49790612, 0.49201736, -0.37118497, 0.6101068
328, 561217307, 0.49794835, 0.491835, -0.3711721, 0.6102273
329, 561233974, 0.49791458, 0.49172607, -0.3710977, 0.61038774
330, 561250641, 0.49786574, 0.4916327, -0.3710616, 0.6105248
331, 561267308, 0.49795023, 0.4913638, -0.37105143, 0.6106786
332, 561283975, 0.49804997, 0.49106398, -0.37110147, 0.6108079
333, 561300642, 0.49809006, 0.49086323, -0.37123445, 0.6108558
334, 561317309, 0.49827394, 0.49057356, -0.37122643, 0.61094326
335, 561333976, 0.49844375, 0.49027884, -0.37131628, 0.6109867
336, 561350643, 0.49829856, 0.49026704, -0.37148005, 0.6110151
337, 561367310, 0.49796906, 0.49048397, -0.37141344, 0.6111502
338, 561383977, 0.4981764, 0.49016055, -0.37133014, 0.6112912
339, 561400644, 0.49846822, 0.48980343, -0.3713988, 0.611298
340, 561417311, 0.49826306, 0.4899221, -0.3715352, 0.61128724
341, 561433978, 0.49805433, 0.48997036, -0.37169814, 0.6113195
342, 561450645, 0.49812397, 0.4897857, -0.37188035, 0.61129993
343, 561467312, 0.49816498, 0.489691, -0.37189636, 0.61133265
344, 561483979, 0.49810869, 0.48975194, -0.37203592, 0.6112448
345, 561500646, 0.4981406, 0.48972774, -0.37212002, 0.611187
346, 561517313, 0.49824336, 0.4896276, -0.37212914, 0.6111778
347, 561533980, 0.49828592, 0.48966086, -0.3722003, 0.61107314
348, 561550647, 0.49821097, 0.48986593, -0.3722678, 0.6109288
349, 561567314, 0.4982861, 0.48990035, -0.3722897, 0.61082655
350, 561583981, 0.4984504, 0.48982677, -0.3723383, 0.6107219
351, 561600648, 0.49833187, 0.49008468, -0.37240544, 0.6105707
352, 561617315, 0.49825168, 0.49024603, -0.37234598, 0.61054295
353, 561633982, 0.4983778, 0.49012044, -0.37214872, 0.6106612
354, 561650649, 0.49838156, 0.49016938, -0.37200344, 0.6107073
355, 561667316, 0.4981908, 0.49043754, -0.3719444, 0.61068356
356, 561683983, 0.49816862, 0.49048805, -0.37186605, 0.6107088
357, 561700650, 0.49820122, 0.4905237, -0.37175524, 0.61072105
358, 561717317, 0.49818882, 0.49065885, -0.37178886, 0.6106021
359, 561733984, 0.4982061, 0.49081647, -0.3718033, 0.6104524
360, 561750651, 0.49829286, 0.49090412, -0.3718539, 0.61028033
361, 561767318, 0.49828753, 0.49111652, -0.37182, 0.6101344
362, 561783985, 0.49828705, 0.4912793, -0.37170717, 0.61007255
363, 561800652, 0.49825847, 0.4914608, -0.3714067, 0.61013275
364, 561817319, 0.49827614, 0.49157318, -0.37125978, 0.61011714
365, 561833986, 0.49821335, 0.49178675, -0.3711334, 0.61007327
366, 561850653, 0.49817672, 0.49195933, -0.3710275, 0.61002845
367, 561867320, 0.4982461, 0.4920048, -0.37095562, 0.6099787
368, 561883987, 0.49827608, 0.49212283, -0.3709971, 0.6098339
369, 561900654, 0.4981895, 0.4923955, -0.37106767, 0.60964143
370, 561917321, 0.49807194, 0.49267343, -0.37100816, 0.6095493
371, 561933988, 0.4980807, 0.49278277, -0.37084994, 0.60955006
372, 561950655, 0.4980565, 0.4929442, -0.37068528, 0.60953933
373, 561967322, 0.49795318, 0.49319348, -0.3705993, 0.60947436
374, 561983989, 0.4978836, 0.49335083, -0.37048483, 0.60947347
375, 562000656, 0.49797708, 0.49330372, -0.37038207, 0.6094978
376, 562017323, 0.49794173, 0.4934065, -0.3703156, 0.60948366
377, 562033990, 0.49783087, 0.49360046, -0.3702613, 0.60945016
378, 562050657, 0.49775296, 0.4936973, -0.37016407, 0.60949445
379, 562067324, 0.4976952, 0.49376437, -0.3701159, 0.6095165
380, 562083991, 0.49756446, 0.4939401, -0.370038, 0.60952836
381, 562100658, 0.4973935, 0.49412987, -0.36984268, 0.6096325
382, 562117325, 0.49725023, 0.4942723, -0.3697523, 0.60968894
383, 562133992, 0.49724066, 0.49431157, -0.36961097, 0.60975045
384, 562150659, 0.49728793, 0.4942668, -0.36956832, 0.60977405
385, 562167326, 0.49710476, 0.49444073, -0.36964467, 0.60973614
386, 562183993, 0.49686995, 0.49465582, -0.3695449, 0.6098136
387, 562200660, 0.49707615, 0.49442044, -0.36934623, 0.6099568
388, 562217327, 0.49738172, 0.49414182, -0.3693082, 0.6099565
389, 562233994, 0.49724585, 0.49428126, -0.36927167, 0.6099765
390, 562250661, 0.49705338, 0.49433222, -0.36913815, 0.61017275
391, 562267328, 0.4971241, 0.4940963, -0.36913612, 0.61030734
392, 562283995, 0.49705824, 0.49412546, -0.36908314, 0.6103694
393, 562300662, 0.49692944, 0.49428058, -0.36910132, 0.6103377
394, 562317329, 0.49694216, 0.49426457, -0.36911193, 0.6103339
395, 562333996, 0.49702895, 0.49413294, -0.369084, 0.61038667
396, 562350663, 0.4970673, 0.49405774, -0.36914253, 0.6103809
397, 562367330, 0.49704197, 0.4940751, -0.3691159, 0.61040354
398, 562383997, 0.4971321, 0.4939619, -0.36910817, 0.6104266
399, 562400664, 0.49728483, 0.4937969, -0.36915854, 0.61040515
400, 562417331, 0.4972063, 0.4938778, -0.36923122, 0.61035967
401, 562433998, 0.49711484, 0.4939567, -0.36926115, 0.6103522
402, 562450665, 0.49719697, 0.4938091, -0.36928213, 0.6103921
403, 562467332, 0.49710506, 0.49387288, -0.36928272, 0.61041504
404, 562483999, 0.4970489, 0.49389732, -0.36919275, 0.6104953
405, 562500666, 0.49713063, 0.4937391, -0.36920598, 0.6105488
406, 562517333, 0.4970739, 0.4937401, -0.36920786, 0.6105931
407, 562534000, 0.4970088, 0.49372104, -0.36931995, 0.61059374
408, 562550667, 0.49705088, 0.49360123, -0.3694246, 0.6105931
409, 562567334, 0.49709204, 0.4935302, -0.3694774, 0.6105851
410, 562584001, 0.49709365, 0.49350926, -0.3696083, 0.61052126
411, 562600668, 0.49710584, 0.49343678, -0.36972466, 0.6104995
412, 562617335, 0.49708262, 0.4933471, -0.36981714, 0.610535
413, 562634002, 0.49706146, 0.49327692, -0.36989462, 0.61056185
414, 562650669, 0.4971009, 0.49316004, -0.37004125, 0.6105354
415, 562667336, 0.49716443, 0.49302965, -0.3701801, 0.61050487
416, 562684003, 0.49717364, 0.49293023, -0.37037674, 0.61045825
417, 562700670, 0.49716747, 0.49287602, -0.3706077, 0.610367
418, 562717337, 0.49718148, 0.49282566, -0.37086958, 0.61023706
419, 562734004, 0.49726334, 0.49269, -0.37110555, 0.6101365
420, 562750671, 0.4973771, 0.49251753, -0.3713512, 0.6100335
421, 562767338, 0.4974652, 0.4923475, -0.3715451, 0.609981
422, 562784005, 0.49755257, 0.4921918, -0.37174582, 0.6099131
423, 562800672, 0.49758595, 0.4921152, -0.371832, 0.60989505
424, 562817339, 0.4976719, 0.49194905, -0.37195757, 0.6098825
425, 562834006, 0.4977321, 0.49180973, -0.37209138, 0.60986394
426, 562850673, 0.4977374, 0.49170414, -0.37213963, 0.6099153
427, 562867340, 0.4977331, 0.49159235, -0.37220523, 0.609969
428, 562884007, 0.49772877, 0.49152344, -0.37233007, 0.6099518
429, 562900674, 0.49766937, 0.49150157, -0.37249097, 0.6099196
430, 562917341, 0.49757034, 0.4914505, -0.37249205, 0.6100409
431, 562934008, 0.49758267, 0.49129048, -0.3726195, 0.61008185
432, 562950675, 0.49770823, 0.49100125, -0.3727099, 0.610157
433, 562967342, 0.49776143, 0.49089602, -0.37276196, 0.6101665
434, 562984009, 0.49793264, 0.49072203, -0.37262988, 0.61024755
435, 563000676, 0.4979868, 0.49065542, -0.37273642, 0.61019194
436, 563017343, 0.49777952, 0.49087572, -0.37267065, 0.610224
437, 563034010, 0.49773815, 0.4909266, -0.37246266, 0.6103438
438, 563050677, 0.49819627, 0.4904886, -0.37230793, 0.61041653
439, 563067344, 0.49837664, 0.49040702, -0.37219912, 0.6104012
440, 563084011, 0.49832255, 0.49044865, -0.37215415, 0.61043936
441, 563100678, 0.4983888, 0.4903012, -0.37217706, 0.6104898
442, 563117345, 0.49842134, 0.49025497, -0.37215748, 0.6105121
443, 563134012, 0.49835765, 0.49038458, -0.37210372, 0.6104929
444, 563150679, 0.4981567, 0.4906002, -0.3718371, 0.6106463
445, 563167346, 0.49815145, 0.49056235, -0.37151253, 0.61087835
446, 563184013, 0.49802625, 0.49069515, -0.37141502, 0.610933
447, 563200680, 0.4978967, 0.4908709, -0.37133628, 0.61094534
448, 563217347, 0.49794114, 0.49087793, -0.3712108, 0.61097956
449, 563234014, 0.49800852, 0.49088523, -0.3711368, 0.61096376
450, 563250681, 0.49797964, 0.49105424, -0.37113097, 0.6108551
451, 563267348, 0.49773505, 0.49146438, -0.37104914, 0.6107744
452, 563284015, 0.4976028, 0.49165893, -0.3705967, 0.6110001
453, 563300682, 0.4976259, 0.49168417, -0.37023765, 0.6111787
454, 563317349, 0.49740678, 0.49204832, -0.3700389, 0.6111844
455, 563334016, 0.49722305, 0.49233812, -0.3697565, 0.61127126
456, 563350683, 0.49722934, 0.49239063, -0.36949432, 0.6113825
457, 563367350, 0.49713534, 0.49258676, -0.36929747, 0.6114199
458, 563384017, 0.4970402, 0.49283466, -0.3692097, 0.61135024
459, 563400684, 0.497105, 0.49290755, -0.3691055, 0.6113019
460, 563417351, 0.49712187, 0.49307132, -0.36902457, 0.611205
461, 563434018, 0.49700323, 0.4933737, -0.36881256, 0.6111854
462, 563450685, 0.49707946, 0.49344778, -0.36861303, 0.6111839
463, 563467352, 0.4971154, 0.49357367, -0.3684793, 0.6111337
464, 563484019, 0.49704602, 0.4938055, -0.36828688, 0.6111189
465, 563500686, 0.49704245, 0.49397084, -0.3681414, 0.6110758
466, 563517353, 0.4970853, 0.4940966, -0.3680028, 0.6110226
467, 563534020, 0.49715313, 0.49418136, -0.36793718, 0.6109384
468, 563550687, 0.49712762, 0.49434212, -0.36783144, 0.61089283
469, 563567354, 0.49709937, 0.49448994, -0.36775243, 0.6108438
470, 563584021, 0.49706307, 0.49461466, -0.36755893, 0.6108887
471, 563600688, 0.49708828, 0.4946435, -0.36741233, 0.61093324
472, 563617355, 0.49712735, 0.49465874, -0.3673914, 0.6109017
473, 563634022, 0.49721378, 0.49462163, -0.36731207, 0.610909
474, 563650689, 0.4972745, 0.49462652, -0.3672668, 0.6108828
475, 563667356, 0.49731246, 0.49467143, -0.36724228, 0.6108303
476, 563684023, 0.49734074, 0.494717, -0.36722997, 0.6107778
477, 563700690, 0.4973536, 0.4947856, -0.36719584, 0.6107322
478, 563717357, 0.49735513, 0.49481484, -0.3671491, 0.6107354
479, 563734024, 0.49736807, 0.4948167, -0.367015, 0.610804
480, 563750691, 0.49736187, 0.49483314, -0.36698458, 0.6108141
481, 563767358, 0.49731222, 0.4948906, -0.36698472, 0.61080784
482, 563784025, 0.49728853, 0.49491408, -0.36695492, 0.6108261
483, 563800692, 0.49724385, 0.49491987, -0.36695218, 0.61085933
484, 563817359, 0.49722204, 0.49493963, -0.3670002, 0.6108321
485, 563834026, 0.49738413, 0.4947789, -0.36691338, 0.61088264
486, 563850693, 0.49741736, 0.4947299, -0.36700875, 0.6108378
487, 563867360, 0.49713507, 0.4949701, -0.36712122, 0.61080545
488, 563884027, 0.49691734, 0.4952016, -0.3670596, 0.610832
489, 563900694, 0.4972607, 0.49487245, -0.3669092, 0.61090994
490, 563917361, 0.49749863, 0.4947115, -0.36702988, 0.6107739
491, 563934028, 0.49720174, 0.49502128, -0.36713055, 0.61070424
492, 563950695, 0.49709707, 0.4950142, -0.36728376, 0.6107031
493, 563967362, 0.4971818, 0.49487072, -0.36731148, 0.61073375
494, 563984029, 0.49717483, 0.49490663, -0.36732626, 0.61070144
495, 564000696, 0.49705273, 0.49506408, -0.36740407, 0.6106264
496, 564017363, 0.4971008, 0.49502003, -0.36745062, 0.61059487
497, 564034030, 0.49730593, 0.49477324, -0.36750033, 0.6105978
498, 564050697, 0.49725097, 0.49485096, -0.36745247, 0.6106085
499, 564067364, 0.4972115, 0.4949243, -0.3674977, 0.610554
500, 564084031, 0.4972396, 0.4949523, -0.36755654, 0.61047304
501, 564100698, 0.49730268, 0.4949461, -0.36757457, 0.6104158
502, 564117365, 0.49702483, 0.4953095, -0.36757404, 0.61034775
503, 564134032, 0.4970591, 0.49531543, -0.3675257, 0.61034393
504, 564150699, 0.49723148, 0.49514094, -0.36754236, 0.6103352
505, 564167366, 0.4971371, 0.49530968, -0.36761943, 0.6102288
506, 564184033, 0.49709675, 0.49536803, -0.3677169, 0.61015546
507, 564200700, 0.49709627, 0.49533954, -0.36769596, 0.6101915
508, 564217367, 0.4970962, 0.495346, -0.3676469, 0.610216
509, 564234034, 0.4969879, 0.4954916, -0.36764285, 0.61018854
510, 564250701, 0.4968536, 0.4956824, -0.36757064, 0.6101864
511, 564267368, 0.4968215, 0.49571794, -0.36745968, 0.61025053
512, 564284035, 0.49669838, 0.4958808, -0.36743447, 0.6102335
513, 564300702, 0.49651527, 0.49610966, -0.3674435, 0.610191
514, 564317369, 0.4964619, 0.49618822, -0.36737174, 0.6102138
515, 564334036, 0.49648324, 0.49618956, -0.36738563, 0.610187
516, 564350703, 0.49638352, 0.4963184, -0.36741263, 0.6101472
517, 564367370, 0.49629655, 0.49642602, -0.3674784, 0.6100907
518, 564384037, 0.49617454, 0.49656203, -0.36742488, 0.61011153
519, 564400704, 0.4960735, 0.49668214, -0.3673938, 0.6101147
520, 564417371, 0.49592718, 0.49685368, -0.36742896, 0.61007285
521, 564434038, 0.49580947, 0.49698287, -0.36748865, 0.6100272
522, 564450705, 0.49572116, 0.49706206, -0.36744985, 0.6100577
523, 564467372, 0.4956391, 0.49714127, -0.36742076, 0.6100775
524, 564484039, 0.49555594, 0.49721992, -0.36743742, 0.61007094
525, 564500706, 0.49554682, 0.49724424, -0.36750835, 0.6100158
526, 564517373, 0.49554554, 0.49722365, -0.3674817, 0.61004966
527, 564534040, 0.4955112, 0.49722412, -0.3674848, 0.6100753
528, 564550707, 0.495406, 0.49729425, -0.3675191, 0.6100829
529, 564567374, 0.49532688, 0.4973355, -0.3674803, 0.6101369
530, 564584041, 0.49528408, 0.4973379, -0.3674562, 0.6101843
531, 564600708, 0.49516782, 0.497405, -0.36740792, 0.6102531
532, 564617375, 0.49513197, 0.49737784, -0.3674062, 0.6103052
533, 564634042, 0.4951423, 0.49728662, -0.36735573, 0.6104015
534, 564650709, 0.4950889, 0.49723792, -0.3672735, 0.610534
535, 564667376, 0.49497682, 0.49728662, -0.3672848, 0.6105784
536, 564684043, 0.49499652, 0.49725533, -0.36716512, 0.6106598
537, 564700710, 0.49511522, 0.49704152, -0.36713344, 0.6107567
538, 564717377, 0.49491978, 0.4971473, -0.3671843, 0.61079854
539, 564734044, 0.49458355, 0.4974433, -0.36714843, 0.61085165
540, 564750711, 0.4947407, 0.49726012, -0.3670332, 0.61094254
541, 564767378, 0.49500132, 0.4970012, -0.36699462, 0.61096525
542, 564784045, 0.49489135, 0.49707896, -0.36707568, 0.6109424
543, 564800712, 0.4947843, 0.49702862, -0.36729974, 0.6109354
544, 564817379, 0.4948772, 0.49679857, -0.36747292, 0.61094326
545, 564834046, 0.49490783, 0.4967468, -0.36760715, 0.6108796
546, 564850713, 0.49486038, 0.49681532, -0.3676773, 0.6108201
547, 564867380, 0.49489468, 0.4967696, -0.36769447, 0.61081916
548, 564884047, 0.49503654, 0.49657804, -0.36773655, 0.6108347
549, 564900714, 0.4950324, 0.49656525, -0.36776748, 0.61082983
550, 564917381, 0.4949602, 0.49664503, -0.36780176, 0.6108028
551, 564934048, 0.49500445, 0.49659762, -0.3677656, 0.6108273
552, 564950715, 0.49522516, 0.49636912, -0.36782792, 0.6107966
553, 564967382, 0.49520904, 0.49639058, -0.36785433, 0.6107763
554, 564984049, 0.49508494, 0.49651402, -0.36786634, 0.6107694
555, 565000716, 0.49518684, 0.4963408, -0.36773995, 0.61090374
556, 565017383, 0.4951971, 0.49630615, -0.3675839, 0.6110175
557, 565034050, 0.4951286, 0.49635544, -0.36745223, 0.611112
558, 565050717, 0.4951166, 0.49632812, -0.3673979, 0.61117667
559, 565067384, 0.49515963, 0.49623057, -0.36733675, 0.6112578
560, 565084051, 0.49519593, 0.49618205, -0.36737528, 0.6112446
561, 565100718, 0.49523795, 0.49613407, -0.36743203, 0.6112154
562, 565117385, 0.4953008, 0.49606913, -0.36742693, 0.6112201
563, 565134052, 0.49539492, 0.495969, -0.36736235, 0.611264
564, 565150719, 0.49544054, 0.49593714, -0.36736193, 0.6112531
565, 565167386, 0.4955165, 0.49585995, -0.36732456, 0.6112766
566, 565184053, 0.49560973, 0.4957457, -0.3672169, 0.61135846
567, 565200720, 0.49569458, 0.4956177, -0.36716735, 0.6114231
568, 565217387, 0.49572125, 0.49558318, -0.36717632, 0.61142415
569, 565234054, 0.49579105, 0.49549824, -0.3671015, 0.6114812
570, 565250721, 0.49579665, 0.4954664, -0.36699846, 0.61156434
571, 565267388, 0.49582028, 0.4954377, -0.36691442, 0.6116189
572, 565284055, 0.49583694, 0.4954386, -0.36685494, 0.6116403
573, 565300722, 0.4959137, 0.49535808, -0.36685017, 0.6116461
574, 565317389, 0.49600726, 0.49525014, -0.3668349, 0.6116668
575, 565334056, 0.4961161, 0.49513164, -0.36686164, 0.6116585
576, 565350723, 0.49614304, 0.49510768, -0.3668644, 0.61165446
577, 565367390, 0.49621677, 0.4950345, -0.36684728, 0.6116641
578, 565384057, 0.49631274, 0.49491245, -0.36690784, 0.6116487
579, 565400724, 0.49636924, 0.494826, -0.3669826, 0.61162794
580, 565417391, 0.4964072, 0.49475127, -0.36697748, 0.61166066
581, 565434058, 0.496449, 0.49465615, -0.36711663, 0.6116201
582, 565450725, 0.496445, 0.49460015, -0.36715502, 0.61164564
583, 565467392, 0.4964709, 0.4945202, -0.36726114, 0.61162555
584, 565484059, 0.49648005, 0.49445286, -0.36728743, 0.6116567
585, 565500726, 0.49653527, 0.49433196, -0.36739323, 0.6116461
586, 565517393, 0.4964977, 0.49429652, -0.3674509, 0.6116706
587, 565534060, 0.49652603, 0.49420273, -0.36758807, 0.611641
588, 565550727, 0.49658412, 0.49416828, -0.36760876, 0.6116092
589, 565567394, 0.49679723, 0.49393708, -0.36756828, 0.6116472
590, 565584061, 0.49673215, 0.4939205, -0.36786234, 0.6115366
591, 565600728, 0.49641863, 0.49418, -0.36787158, 0.6115762
592, 565617395, 0.49652922, 0.4940036, -0.36777985, 0.6116841
593, 565634062, 0.49682307, 0.49371204, -0.3677847, 0.6116779
594, 565650729, 0.49673545, 0.49376956, -0.36785716, 0.61165905
595, 565667396, 0.4966302, 0.49366635, -0.3680391, 0.6117184
596, 565684063, 0.4966693, 0.4934496, -0.3682706, 0.6117222
597, 565700730, 0.49667245, 0.4934029, -0.36846116, 0.61164254
598, 565717397, 0.49663273, 0.49341428, -0.36858466, 0.61159116
599, 565734064, 0.49663523, 0.49335396, -0.3686602, 0.61159223
600, 565750731, 0.49670464, 0.49320203, -0.36877778, 0.6115876
601, 565767398, 0.49671972, 0.49314147, -0.36879885, 0.6116113
602, 565784065, 0.49670383, 0.4931288, -0.36882806, 0.6116169
603, 565800732, 0.4966654, 0.49314755, -0.36888286, 0.6115999
604, 565817399, 0.49668947, 0.4930929, -0.3689674, 0.6115734
605, 565834066, 0.49662715, 0.49311116, -0.3690051, 0.6115866
606, 565850733, 0.49650466, 0.49320292, -0.3690199, 0.61160314
607, 565867400, 0.49650243, 0.4931213, -0.3689711, 0.61170024
608, 565884067, 0.4965643, 0.49300304, -0.36898926, 0.6117344
609, 565900734, 0.4964438, 0.4930872, -0.368962, 0.6117808
610, 565917401, 0.49640873, 0.4930397, -0.3689443, 0.6118582
611, 565934068, 0.4964727, 0.49287516, -0.36894053, 0.6119411
612, 565950735, 0.49658075, 0.4927211, -0.36901918, 0.61193013
613, 565967402, 0.49675426, 0.49253803, -0.36908123, 0.6118991
614, 565984069, 0.49693045, 0.4924004, -0.36902893, 0.61189836
615, 566000736, 0.49708855, 0.49232256, -0.36897522, 0.611865
616, 566017403, 0.49712297, 0.49237087, -0.36894336, 0.6118173
617, 566034070, 0.4970512, 0.492495, -0.36877835, 0.61187536
618, 566050737, 0.4971764, 0.49239838, -0.36853373, 0.6119988
619, 566067404, 0.49728382, 0.49234286, -0.36839673, 0.61203855
620, 566084071, 0.49729759, 0.49236462, -0.3682645, 0.61208946
621, 566100738, 0.49735203, 0.49232984, -0.36808553, 0.61218095
622, 566117405, 0.49738815, 0.49232802, -0.36792046, 0.6122521
623, 566134072, 0.4973868, 0.49238726, -0.36772245, 0.61232466
624, 566150739, 0.4974708, 0.4923879, -0.36754823, 0.6123604
625, 566167406, 0.49757117, 0.49235967, -0.36744386, 0.61236423
626, 566184073, 0.49761218, 0.4924091, -0.3674038, 0.6123151
627, 566200740, 0.49756122, 0.49257323, -0.36727163, 0.61230385
628, 566217407, 0.49761575, 0.49262273, -0.36719015, 0.6122686
629, 566234074, 0.49769706, 0.49264482, -0.36709487, 0.6122419
630, 566250741, 0.4977475, 0.49269146, -0.36698213, 0.61223084
631, 566267408, 0.49777472, 0.49271074, -0.36689445, 0.61224586
632, 566284075, 0.49782172, 0.4926832, -0.36674136, 0.61232156
633, 566300742, 0.49787948, 0.4926565, -0.3666239, 0.6123663
634, 566317409, 0.49784583, 0.49276945, -0.36652946, 0.6123594
635, 566334076, 0.49778533, 0.49292114, -0.36642137, 0.6123512
636, 566350743, 0.49780244, 0.49299544, -0.3663672, 0.6123099
637, 566367410, 0.49779257, 0.49308327, -0.36623144, 0.6123284
