PacketCounter,SampleTimeFine,Quat_W,Quat_X,Quat_Y,Quat_Z
1, 555798146, 0.30902725, 0.6496849, -0.24704292, 0.6491391
2, 555814813, 0.30856198, 0.6496678, -0.24725029, 0.6492985
3, 555831480, 0.30842304, 0.6495573, -0.24712129, 0.6495243
4, 555848147, 0.3087198, 0.6490205, -0.2471627, 0.64990395
5, 555864814, 0.30878335, 0.6484436, -0.24706256, 0.65048736
6, 555881481, 0.3088023, 0.6480544, -0.24696378, 0.65090364
7, 555898148, 0.30867824, 0.64801854, -0.24677488, 0.65106976
8, 555914815, 0.30851516, 0.6482439, -0.24658911, 0.65099317
9, 555931482, 0.30848885, 0.64841956, -0.2464255, 0.6508928
10, 555948149, 0.3086824, 0.648359, -0.24642883, 0.6508599
11, 555964816, 0.30894205, 0.64828974, -0.2465371, 0.6507647
12, 555981483, 0.308957, 0.6483245, -0.24621908, 0.6508434
13, 555998150, 0.3086721, 0.648444, -0.24549583, 0.6511327
14, 556014817, 0.30853212, 0.64855045, -0.24492677, 0.6513074
15, 556031484, 0.30884558, 0.64851916, -0.24497522, 0.6511717
16, 556048151, 0.30919984, 0.64840835, -0.2450147, 0.6510991
17, 556064818, 0.30927968, 0.64837414, -0.24467519, 0.6512228
18, 556081485, 0.30909848, 0.64843565, -0.24391693, 0.65153205
19, 556098152, 0.30878162, 0.6484969, -0.24301459, 0.6519584
20, 556114819, 0.30860952, 0.64854777, -0.24230237, 0.65225416
21, 556131486, 0.30863586, 0.6486028, -0.24179949, 0.65237373
22, 556148153, 0.30851585, 0.648665, -0.24113832, 0.65261346
23, 556164820, 0.3082993, 0.64876497, -0.24051078, 0.6528478
24, 556181487, 0.3080612, 0.64895886, -0.23977591, 0.6530379
25, 556198154, 0.3075339, 0.64930046, -0.23869276, 0.6533435
26, 556214821, 0.30711573, 0.64959097, -0.23786008, 0.653555
27, 556231488, 0.3070062, 0.6497087, -0.23756672, 0.6535962
28, 556248155, 0.3067871, 0.64990413, -0.23722667, 0.6536283
29, 556264822, 0.30641496, 0.65011865, -0.2365745, 0.6538258
30, 556281489, 0.30618668, 0.65024835, -0.23620364, 0.65393794
31, 556298156, 0.30615127, 0.65028, -0.23621055, 0.65392053
32, 556314823, 0.30601713, 0.6503462, -0.23610099, 0.65395683
33, 556331490, 0.30599865, 0.6503981, -0.23609227, 0.65391725
34, 556348157, 0.30588666, 0.6505625, -0.23616809, 0.6537787
35, 556364824, 0.30592343, 0.6505254, -0.2365011, 0.6536779
36, 556381491, 0.306181, 0.65049314, -0.23710366, 0.653371
37, 556398158, 0.30628666, 0.65059453, -0.23737068, 0.65312356
38, 556414825, 0.3064021, 0.65062076, -0.23751238, 0.6529918
39, 556431492, 0.30669606, 0.65059364, -0.23797561, 0.6527123
40, 556448159, 0.3067787, 0.65070516, -0.23804565, 0.6525366
41, 556464826, 0.3069398, 0.6507688, -0.23828273, 0.6523107
42, 556481493, 0.30725327, 0.6507676, -0.23880054, 0.6519749
43, 556498160, 0.30750573, 0.6508079, -0.23910634, 0.6517035
44, 556514827, 0.30731645, 0.65101004, -0.23872374, 0.6517313
45, 556531494, 0.3072535, 0.65120333, -0.23870149, 0.651576
46, 556548161, 0.30745247, 0.65125966, -0.23904583, 0.65129936
47, 556564828, 0.30769107, 0.6512778, -0.23950428, 0.6510003
48, 556581495, 0.30789164, 0.6513059, -0.23979512, 0.65077
49, 556598162, 0.30787915, 0.6514009, -0.23981464, 0.65067375
50, 556614829, 0.30794635, 0.6514254, -0.24000709, 0.65054643
51, 556631496, 0.30790293, 0.65149486, -0.24013086, 0.6504517
52, 556648163, 0.30757228, 0.6516412, -0.23984669, 0.65056646
53, 556664830, 0.30742025, 0.6517391, -0.23966129, 0.6506084
54, 556681497, 0.30752406, 0.65176, -0.23985149, 0.6504684
55, 556698164, 0.3077227, 0.6517929, -0.2402645, 0.65018904
56, 556714831, 0.30789128, 0.65183514, -0.24058485, 0.64994824
57, 556731498, 0.308029, 0.6519009, -0.24089937, 0.6497006
58, 556748165, 0.30808973, 0.6519403, -0.2411735, 0.64953053
59, 556764832, 0.30820537, 0.6519435, -0.24148288, 0.6493575
60, 556781499, 0.3081633, 0.65199566, -0.24162993, 0.6492704
61, 556798166, 0.30812618, 0.6520278, -0.24174269, 0.64921385
62, 556814833, 0.3083542, 0.6520055, -0.24227464, 0.64892954
63, 556831500, 0.3086096, 0.65198416, -0.24285403, 0.6486132
64, 556848167, 0.30889922, 0.65192056, -0.24328099, 0.6483791
65, 556864834, 0.3089242, 0.65198666, -0.24349536, 0.6482202
66, 556881501, 0.3088408, 0.6520669, -0.24355946, 0.64815503
67, 556898168, 0.30879915, 0.6521695, -0.24371988, 0.64801145
68, 556914835, 0.30887854, 0.6522014, -0.24397014, 0.6478473
69, 556931502, 0.30881947, 0.65233773, -0.24406667, 0.6477019
70, 556948169, 0.30892685, 0.6524314, -0.24429719, 0.64746916
71, 556964836, 0.3089821, 0.6525433, -0.24449682, 0.6472545
72, 556981503, 0.30889747, 0.65264577, -0.24453065, 0.6471789
73, 556998170, 0.30896497, 0.65268826, -0.24475686, 0.6470185
74, 557014837, 0.30890027, 0.652807, -0.24479902, 0.6469135
75, 557031504, 0.30880287, 0.6528581, -0.2447513, 0.6469265
76, 557048171, 0.30893284, 0.65288824, -0.24508663, 0.6467071
77, 557064838, 0.30909982, 0.65286106, -0.24541238, 0.64653116
78, 557081505, 0.30915493, 0.6528971, -0.24565461, 0.64637643
79, 557098172, 0.3093131, 0.65289694, -0.2460251, 0.64616
80, 557114839, 0.30950204, 0.65288657, -0.24634592, 0.6459577
81, 557131506, 0.3096972, 0.6527769, -0.24657048, 0.6458892
82, 557148173, 0.31012133, 0.65260756, -0.24733362, 0.6455652
83, 557164840, 0.31076503, 0.6522705, -0.24843965, 0.64517134
84, 557181507, 0.31130376, 0.65202546, -0.24930263, 0.64482635
85, 557198174, 0.31167617, 0.65178823, -0.24974592, 0.64471483
86, 557214841, 0.31206074, 0.65148455, -0.25035018, 0.64460146
87, 557231508, 0.31280965, 0.6509633, -0.2512865, 0.6444005
88, 557248175, 0.313292, 0.6506344, -0.25186062, 0.64427435
89, 557264842, 0.31348744, 0.65040743, -0.25199673, 0.6443552
90, 557281509, 0.31402814, 0.6499596, -0.2525722, 0.64431846
91, 557298176, 0.3147362, 0.6494437, -0.25348732, 0.6441336
92, 557314843, 0.31495395, 0.64917743, -0.25377765, 0.6441815
93, 557331510, 0.31510967, 0.64897513, -0.2538546, 0.64427876
94, 557348177, 0.31542164, 0.64870054, -0.25409508, 0.64430785
95, 557364844, 0.31566337, 0.6485055, -0.2544169, 0.64425874
96, 557381511, 0.31574443, 0.6483677, -0.25457367, 0.6442958
97, 557398178, 0.31571174, 0.64832157, -0.25463197, 0.6443352
98, 557414845, 0.31564617, 0.6482751, -0.25469577, 0.644389
99, 557431512, 0.3155217, 0.6483592, -0.2547321, 0.64435095
100, 557448179, 0.31541592, 0.6484538, -0.2548484, 0.64426154
101, 557464846, 0.3155251, 0.6483194, -0.25531134, 0.64416003
102, 557481513, 0.3157087, 0.6480563, -0.25598958, 0.64406556
103, 557498180, 0.31562153, 0.6479107, -0.25618625, 0.64417654
104, 557514847, 0.31532502, 0.6478832, -0.25599912, 0.6444238
105, 557531514, 0.31537765, 0.64766496, -0.2562141, 0.6445319
106, 557548181, 0.31573552, 0.64726746, -0.25686, 0.64449894
107, 557564848, 0.31596228, 0.6469722, -0.25743636, 0.6444543
108, 557581515, 0.31606427, 0.64669776, -0.2577881, 0.64453924
109, 557598182, 0.31612667, 0.64641213, -0.25812316, 0.64466107
110, 557614849, 0.31611145, 0.64614725, -0.258321, 0.6448547
111, 557631516, 0.31608224, 0.64597034, -0.25846174, 0.64498997
112, 557648183, 0.31598726, 0.6458603, -0.25845248, 0.6451505
113, 557664850, 0.31592873, 0.64577305, -0.25848266, 0.64525425
114, 557681517, 0.31595105, 0.64569193, -0.25864702, 0.64525867
115, 557698184, 0.3159859, 0.6456035, -0.25879887, 0.6452692
116, 557714851, 0.31600013, 0.6455486, -0.2587794, 0.645325
117, 557731518, 0.31595278, 0.6455931, -0.25860992, 0.64537144
118, 557748185, 0.31582, 0.6457225, -0.25838104, 0.64539874
119, 557764852, 0.31568468, 0.6458513, -0.25815874, 0.64542496
120, 557781519, 0.31545302, 0.64604986, -0.25792152, 0.6454343
121, 557798186, 0.31522405, 0.64621073, -0.25758958, 0.6455176
122, 557814853, 0.31495288, 0.6464196, -0.2572625, 0.6455715
123, 557831520, 0.31469837, 0.6466093, -0.25686106, 0.6456655
124, 557848187, 0.3146805, 0.6467467, -0.25669342, 0.6456032
125, 557864854, 0.3146946, 0.6468274, -0.2565659, 0.6455661
126, 557881521, 0.31448916, 0.6470387, -0.25631395, 0.64555454
127, 557898188, 0.3141474, 0.64730394, -0.25594175, 0.6456028
128, 557914855, 0.31387067, 0.64749956, -0.2556676, 0.6456498
129, 557931522, 0.31360704, 0.6476735, -0.25542593, 0.645699
130, 557948189, 0.31334788, 0.6478707, -0.2552089, 0.64571285
131, 557964856, 0.3129746, 0.64806205, -0.25482926, 0.64585197
132, 557981523, 0.31257096, 0.64825845, -0.25453815, 0.64596516
133, 557998190, 0.31232187, 0.64832854, -0.2543505, 0.6460889
134, 558014857, 0.3121666, 0.64839184, -0.25435558, 0.64609855
135, 558031524, 0.3119617, 0.64847904, -0.25419828, 0.6461719
136, 558048191, 0.31159636, 0.6486636, -0.2538998, 0.64628035
137, 558064858, 0.31164736, 0.64856315, -0.2541111, 0.64627343
138, 558081525, 0.31172064, 0.64855474, -0.25447214, 0.64610445
139, 558098192, 0.31148833, 0.6487147, -0.25423953, 0.6461475
140, 558114859, 0.31142062, 0.6488191, -0.25411963, 0.6461225
141, 558131526, 0.31160495, 0.64878714, -0.25443515, 0.64594173
142, 558148193, 0.31163225, 0.64885473, -0.25460625, 0.645793
143, 558164860, 0.3115709, 0.64890355, -0.2546395, 0.6457604
144, 558181527, 0.31166208, 0.6488648, -0.25477695, 0.6457012
145, 558198194, 0.31179744, 0.64881814, -0.2549251, 0.6456243
146, 558214861, 0.31182474, 0.6488334, -0.25495443, 0.6455841
147, 558231528, 0.31191644, 0.6487991, -0.25509164, 0.6455201
148, 558248195, 0.31208012, 0.6487195, -0.2552621, 0.64545363
149, 558264862, 0.3121945, 0.6485975, -0.25536564, 0.64548
150, 558281529, 0.3121322, 0.6485629, -0.25526094, 0.64558625
151, 558298196, 0.31207538, 0.64846885, -0.2551334, 0.64575875
152, 558314863, 0.31212184, 0.64833885, -0.25521225, 0.6458355
153, 558331530, 0.31224087, 0.64820427, -0.25537565, 0.6458484
154, 558348197, 0.31221703, 0.6481549, -0.25535965, 0.64591575
155, 558364864, 0.31216818, 0.6480971, -0.25521475, 0.6460546
156, 558381531, 0.31212384, 0.6480344, -0.2550704, 0.646196
157, 558398198, 0.3121283, 0.647965, -0.2548844, 0.6463369
158, 558414865, 0.3121753, 0.64790773, -0.2548305, 0.6463927
159, 558431532, 0.31223518, 0.6477595, -0.25484124, 0.64650834
160, 558448199, 0.31226462, 0.6476201, -0.25491315, 0.6466054
161, 558464866, 0.31215066, 0.64753294, -0.25483996, 0.6467764
162, 558481533, 0.31210896, 0.64744544, -0.2548306, 0.6468878
163, 558498200, 0.31200576, 0.64741755, -0.2547331, 0.6470038
164, 558514867, 0.31195897, 0.6473395, -0.2547259, 0.64710736
165, 558531534, 0.3118802, 0.64726645, -0.2546576, 0.64724535
166, 558548201, 0.3117716, 0.6471819, -0.25448725, 0.6474492
167, 558564868, 0.31170288, 0.6470861, -0.25439885, 0.6476127
168, 558581535, 0.3115103, 0.6471219, -0.25423437, 0.64773417
169, 558598202, 0.31136802, 0.647112, -0.25399098, 0.64790803
170, 558614869, 0.3112479, 0.64712477, -0.25387827, 0.64799714
171, 558631536, 0.3111143, 0.64710945, -0.25375387, 0.6481253
172, 558648203, 0.3110244, 0.6471055, -0.2537464, 0.6481752
173, 558664870, 0.3109231, 0.64709735, -0.25372422, 0.64824057
174, 558681537, 0.31080207, 0.64709336, -0.25369352, 0.6483146
175, 558698204, 0.3107201, 0.64706826, -0.25363553, 0.6484017
176, 558714871, 0.31070995, 0.6470229, -0.2536179, 0.6484587
177, 558731538, 0.31067002, 0.64704806, -0.25364542, 0.648442
178, 558748205, 0.3106515, 0.6470739, -0.2537225, 0.6483948
179, 558764872, 0.31059653, 0.6470814, -0.2537951, 0.6483853
180, 558781539, 0.31054765, 0.6471152, -0.2538179, 0.64836603
181, 558798206, 0.31030884, 0.6472132, -0.25366712, 0.64844155
182, 558814873, 0.3099771, 0.6473067, -0.25348035, 0.64858
183, 558831540, 0.30995935, 0.6472716, -0.25364986, 0.6485573
184, 558848207, 0.30992723, 0.64722, -0.25373274, 0.64859164
185, 558864874, 0.30982992, 0.64722586, -0.2537108, 0.6486409
186, 558881541, 0.30991527, 0.6471369, -0.2537823, 0.64866084
187, 558898208, 0.3098874, 0.6471072, -0.25383285, 0.64868397
188, 558914875, 0.31005958, 0.6469232, -0.2541939, 0.64864427
189, 558931542, 0.31025448, 0.6468261, -0.2547376, 0.64843416
190, 558948209, 0.3100558, 0.6469562, -0.25461802, 0.6484465
191, 558964876, 0.30989307, 0.6470444, -0.2544112, 0.6485175
192, 558981543, 0.3100746, 0.646936, -0.25459507, 0.6484665
193, 558998210, 0.3101201, 0.64691204, -0.25469303, 0.6484302
194, 559014877, 0.30998182, 0.64698803, -0.25450096, 0.64849603
195, 559031544, 0.30992702, 0.6470267, -0.2543879, 0.6485281
196, 559048211, 0.30999592, 0.6470158, -0.25437886, 0.64850944
197, 559064878, 0.3100035, 0.6470369, -0.25432757, 0.6485049
198, 559081545, 0.31008297, 0.6470825, -0.25447717, 0.6483628
199, 559098212, 0.3101271, 0.6471213, -0.2545001, 0.6482938
200, 559114879, 0.31019217, 0.6471535, -0.25454083, 0.6482146
201, 559131546, 0.31012395, 0.64719415, -0.25440365, 0.64826053
202, 559148213, 0.31005237, 0.6472682, -0.25436857, 0.6482346
203, 559164880, 0.31011435, 0.6472177, -0.2544945, 0.6482059
204, 559181547, 0.31010777, 0.64726514, -0.2545403, 0.64814365
205, 559198214, 0.3099567, 0.6473329, -0.2544651, 0.64817774
206, 559214881, 0.3098971, 0.64743364, -0.2544921, 0.6480952
207, 559231548, 0.3097523, 0.6475346, -0.2544336, 0.6480865
208, 559248215, 0.30961743, 0.6476247, -0.25434294, 0.64809656
209, 559264882, 0.30967855, 0.6476158, -0.25451636, 0.6480081
210, 559281549, 0.30967525, 0.6476212, -0.25468925, 0.64793634
211, 559298216, 0.30952877, 0.6476851, -0.2546622, 0.64795315
212, 559314883, 0.3093576, 0.6476858, -0.2546102, 0.6480545
213, 559331550, 0.30921727, 0.6476916, -0.25465822, 0.6480968
214, 559348217, 0.30914113, 0.64768475, -0.25478363, 0.6480907
215, 559364884, 0.30907625, 0.6476908, -0.25482976, 0.64809746
216, 559381551, 0.30897644, 0.64776254, -0.2548469, 0.6480667
217, 559398218, 0.30887213, 0.6477898, -0.25485152, 0.6480873
218, 559414885, 0.3087036, 0.6478567, -0.2549025, 0.6480807
219, 559431552, 0.30848005, 0.64793336, -0.2548648, 0.6481254
220, 559448219, 0.30822122, 0.64807576, -0.25476542, 0.64814526
221, 559464886, 0.30808213, 0.6481711, -0.25471494, 0.64813584
222, 559481553, 0.307951, 0.64823586, -0.25478598, 0.64810556
223, 559498220, 0.30781162, 0.6483205, -0.254789, 0.6480858
224, 559514887, 0.3075573, 0.6484519, -0.25462648, 0.6481389
225, 559531554, 0.30734867, 0.64856696, -0.25447965, 0.6481805
226, 559548221, 0.30712458, 0.64867634, -0.2543763, 0.64821786
227, 559564888, 0.30693662, 0.6487916, -0.25430462, 0.6482196
228, 559581555, 0.3068005, 0.64891773, -0.25431457, 0.6481539
229, 559598222, 0.3065983, 0.6491095, -0.2542663, 0.64807636
230, 559614889, 0.30636057, 0.64928746, -0.25417292, 0.6480473
231, 559631556, 0.3060958, 0.64949024, -0.25401258, 0.64803207
232, 559648223, 0.30574298, 0.6497265, -0.25375095, 0.64806426
233, 559664890, 0.30556238, 0.6498501, -0.25359243, 0.6480875
234, 559681557, 0.3054702, 0.64992404, -0.25357857, 0.6480622
235, 559698224, 0.30541638, 0.64997905, -0.25360814, 0.6480209
236, 559714891, 0.30538723, 0.65000373, -0.25359544, 0.64801484
237, 559731558, 0.3051669, 0.6500734, -0.2533988, 0.64812565
238, 559748225, 0.3051836, 0.6499707, -0.2534564, 0.64819825
239, 559764892, 0.30526176, 0.6499517, -0.25365624, 0.6481024
240, 559781559, 0.30524537, 0.6500404, -0.2537255, 0.6479941
241, 559798226, 0.3053022, 0.65001166, -0.253785, 0.64797276
242, 559814893, 0.3053262, 0.6500012, -0.25366974, 0.64801705
243, 559831560, 0.30529195, 0.65008307, -0.25356528, 0.647992
244, 559848227, 0.30531803, 0.65013516, -0.25349754, 0.647954
245, 559864894, 0.3055245, 0.6500882, -0.2537031, 0.6478232
246, 559881561, 0.30554757, 0.65013456, -0.2537151, 0.64776105
247, 559898228, 0.3053347, 0.6503409, -0.2534439, 0.6477606
248, 559914895, 0.30518988, 0.6504888, -0.25321704, 0.6477689
249, 559931562, 0.30511138, 0.65062493, -0.25310183, 0.6477143
250, 559948229, 0.30509022, 0.6507305, -0.25304696, 0.64763963
251, 559964896, 0.30508173, 0.6508403, -0.25294715, 0.64757234
252, 559981563, 0.30510336, 0.6508333, -0.25282407, 0.6476172
253, 559998230, 0.3051321, 0.65084, -0.252745, 0.6476278
254, 560014897, 0.30504826, 0.65090823, -0.25260136, 0.6476548
255, 560031564, 0.3050786, 0.6509194, -0.25254637, 0.6476507
256, 560048231, 0.30509058, 0.65094036, -0.25234708, 0.64770174
257, 560064898, 0.30507737, 0.65101224, -0.25213626, 0.64771765
258, 560081565, 0.3050966, 0.65106004, -0.2519955, 0.6477154
259, 560098232, 0.3050024, 0.65114886, -0.2517953, 0.6477485
260, 560114899, 0.30478778, 0.6512611, -0.2514873, 0.6478563
261, 560131566, 0.30478674, 0.6513083, -0.25144446, 0.64782596
262, 560148233, 0.30477142, 0.65135604, -0.25144294, 0.64778566
263, 560164900, 0.30459917, 0.6514559, -0.25126144, 0.6478366
264, 560181567, 0.3045483, 0.65149057, -0.25115585, 0.6478666
265, 560198234, 0.3045539, 0.65152156, -0.25120306, 0.64781445
266, 560214901, 0.30467173, 0.6514917, -0.251322, 0.647743
267, 560231568, 0.30488774, 0.65142155, -0.25145307, 0.6476611
268, 560248235, 0.30501875, 0.6514318, -0.25153932, 0.6475556
269, 560264902, 0.30502704, 0.6514642, -0.25150046, 0.6475341
270, 560281569, 0.304956, 0.65151286, -0.25141913, 0.6475502
271, 560298236, 0.30484658, 0.6515807, -0.25132993, 0.64756805
272, 560314903, 0.3047814, 0.65162885, -0.2512413, 0.6475849
273, 560331570, 0.30475867, 0.65163726, -0.2511578, 0.6476194
274, 560348237, 0.3047666, 0.65168, -0.2511605, 0.6475717
275, 560364904, 0.30476278, 0.6517582, -0.25126904, 0.6474527
276, 560381571, 0.30477864, 0.651789, -0.25140437, 0.6473616
277, 560398238, 0.30469713, 0.65186787, -0.25140634, 0.6473198
278, 560414905, 0.3046026, 0.6519732, -0.25126615, 0.64731264
279, 560431572, 0.3045691, 0.6520782, -0.25122634, 0.6472381
280, 560448239, 0.30455703, 0.6521175, -0.2511839, 0.6472206
281, 560464906, 0.30443665, 0.6521825, -0.25105464, 0.6472619
282, 560481573, 0.30430824, 0.6522029, -0.25082448, 0.647391
283, 560498240, 0.30431768, 0.6522377, -0.25075874, 0.6473769
284, 560514907, 0.30422768, 0.65221006, -0.25058016, 0.64751613
285, 560531574, 0.30420005, 0.65224427, -0.2505414, 0.64750975
286, 560548241, 0.30422953, 0.65217954, -0.2504463, 0.64759785
287, 560564908, 0.30402935, 0.6522366, -0.25026137, 0.6477058
288, 560581575, 0.30402446, 0.65216696, -0.25027925, 0.64777124
289, 560598242, 0.30410543, 0.6521373, -0.2505192, 0.64767057
290, 560614909, 0.30389836, 0.6522912, -0.25039345, 0.6476614
291, 560631576, 0.30375206, 0.6523718, -0.25018656, 0.6477289
292, 560648243, 0.30370215, 0.65240926, -0.2500976, 0.64774865
293, 560664910, 0.30363837, 0.65241927, -0.24999341, 0.6478088
294, 560681577, 0.3035765, 0.6525228, -0.24991697, 0.647763
295, 560698244, 0.30359757, 0.65258324, -0.24982081, 0.64772934
296, 560714911, 0.30365792, 0.6526067, -0.24975258, 0.6477037
297, 560731578, 0.3036038, 0.65267605, -0.24969786, 0.64768016
298, 560748245, 0.30347162, 0.6527423, -0.24962062, 0.64770526
299, 560764912, 0.303374, 0.6527439, -0.24963053, 0.6477456
300, 560781579, 0.30343872, 0.6526986, -0.24975266, 0.6477139
301, 560798246, 0.30335027, 0.6527735, -0.24979728, 0.6476625
302, 560814913, 0.30328238, 0.65275276, -0.24984, 0.6476988
303, 560831580, 0.30323368, 0.6526764, -0.2500055, 0.6477347
304, 560848247, 0.30322117, 0.6525979, -0.25021768, 0.6477377
305, 560864914, 0.30323732, 0.65252745, -0.25038773, 0.64773536
306, 560881581, 0.3032651, 0.6524816, -0.25053543, 0.6477115
307, 560898248, 0.30333036, 0.6524561, -0.25073546, 0.64762914
308, 560914915, 0.30341488, 0.65238076, -0.25093368, 0.64758873
309, 560931582, 0.30355522, 0.6522525, -0.2511334, 0.6475747
310, 560948249, 0.30369955, 0.6521003, -0.25129145, 0.647599
311, 560964916, 0.30378738, 0.651959, -0.25142524, 0.64764816
312, 560981583, 0.30377072, 0.651797, -0.2514691, 0.647802
313, 560998250, 0.30364686, 0.65175235, -0.25152698, 0.64788246
314, 561014917, 0.30366698, 0.6516537, -0.2516301, 0.64793223
315, 561031584, 0.3037498, 0.6515246, -0.25178972, 0.64796126
316, 561048251, 0.30379984, 0.65138227, -0.2518591, 0.64805394
317, 561064918, 0.30386215, 0.65129787, -0.25197285, 0.6480654
318, 561081585, 0.30384785, 0.6512175, -0.2520553, 0.64812064
319, 561098252, 0.30378643, 0.6511557, -0.25205165, 0.6482129
320, 561114919, 0.3036627, 0.65107924, -0.2519324, 0.64839417
321, 561131586, 0.30358246, 0.65102285, -0.2519373, 0.6484865
322, 561148253, 0.3035915, 0.65086585, -0.25201732, 0.64860874
323, 561164920, 0.30367088, 0.6506514, -0.25226277, 0.6486911
324, 561181587, 0.30364576, 0.6504288, -0.25236937, 0.64888465
325, 561198254, 0.3034146, 0.6503074, -0.25226468, 0.6491551
326, 561214921, 0.30323222, 0.6501552, -0.2522056, 0.64941573
327, 561231588, 0.3031328, 0.64997387, -0.2523135, 0.64960164
328, 561248255, 0.30304968, 0.6497983, -0.25236073, 0.64979774
329, 561264922, 0.30297217, 0.64963174, -0.2523042, 0.65002257
330, 561281589, 0.30293304, 0.6494674, -0.2522728, 0.65021706
331, 561298256, 0.30297112, 0.6492807, -0.25230744, 0.6503724
332, 561314923, 0.30299243, 0.64909065, -0.25230333, 0.6505537
333, 561331590, 0.30307448, 0.6489547, -0.25235376, 0.65063155
334, 561348257, 0.30312806, 0.64876187, -0.25237936, 0.65078896
335, 561364924, 0.30319664, 0.64860386, -0.25253594, 0.6508538
336, 561381591, 0.30327576, 0.6484652, -0.25253803, 0.65095407
337, 561398258, 0.30317387, 0.6484274, -0.25236005, 0.6511084
338, 561414925, 0.30327463, 0.6482513, -0.2524785, 0.65119076
339, 561431592, 0.30345464, 0.64810866, -0.25282368, 0.651115
340, 561448259, 0.3033855, 0.6481672, -0.2527159, 0.65113074
341, 561464926, 0.3032681, 0.6482565, -0.25254565, 0.6511625
342, 561481593, 0.30327678, 0.64823264, -0.2525869, 0.65116626
343, 561498260, 0.30319905, 0.6483097, -0.25260088, 0.6511204
344, 561514927, 0.30303442, 0.64841413, -0.25244287, 0.6511543
345, 561531594, 0.3030074, 0.64848185, -0.2524991, 0.6510776
346, 561548261, 0.3029999, 0.6485332, -0.252601, 0.65099037
347, 561564928, 0.30286232, 0.6486558, -0.25260675, 0.6509302
348, 561581595, 0.30275694, 0.6487245, -0.25257215, 0.6509241
349, 561598262, 0.30276936, 0.6487454, -0.25269395, 0.65085024
350, 561614929, 0.3028103, 0.6487596, -0.25278273, 0.6507825
351, 561631596, 0.30295137, 0.6487231, -0.25285137, 0.65072656
352, 561648263, 0.3030113, 0.6487154, -0.25297567, 0.65065813
353, 561664930, 0.30313608, 0.6487002, -0.25307792, 0.6505754
354, 561681597, 0.3030895, 0.64882547, -0.25299418, 0.65050465
355, 561698264, 0.3030198, 0.6489592, -0.2527953, 0.6504811
356, 561714931, 0.30310005, 0.64901024, -0.25275633, 0.65040785
357, 561731598, 0.3032983, 0.6490065, -0.25288343, 0.6502698
358, 561748265, 0.3033486, 0.649113, -0.25285396, 0.65015143
359, 561764932, 0.30347285, 0.6492181, -0.25284946, 0.64999026
360, 561781599, 0.30371416, 0.649207, -0.2530448, 0.6498125
361, 561798266, 0.30389705, 0.6492046, -0.25314483, 0.6496905
362, 561814933, 0.3039776, 0.64923304, -0.25312015, 0.649634
363, 561831600, 0.30395317, 0.6493777, -0.25298518, 0.6495534
364, 561848267, 0.30390495, 0.64957374, -0.25291982, 0.64940536
365, 561864934, 0.30391586, 0.64969814, -0.2528513, 0.64930254
366, 561881601, 0.3037903, 0.6499312, -0.25269875, 0.64918745
367, 561898268, 0.30371356, 0.65017, -0.252588, 0.6490272
368, 561914935, 0.3037639, 0.65035915, -0.25262564, 0.6487996
369, 561931602, 0.30381355, 0.6505279, -0.25269797, 0.648579
370, 561948269, 0.30378145, 0.6507052, -0.25256684, 0.6484671
371, 561964936, 0.30371472, 0.6508545, -0.25230163, 0.6484518
372, 561981603, 0.30363742, 0.65097994, -0.25209585, 0.6484422
373, 561998270, 0.30354217, 0.65115225, -0.25185832, 0.6484061
374, 562014937, 0.30335444, 0.6513632, -0.25157994, 0.64839005
375, 562031604, 0.30323246, 0.65145767, -0.25137833, 0.6484305
376, 562048271, 0.30324617, 0.65152496, -0.2513204, 0.6483788
377, 562064938, 0.30314523, 0.651639, -0.25109032, 0.6484006
378, 562081605, 0.3030509, 0.65174484, -0.25083858, 0.64843565
379, 562098272, 0.30311996, 0.6517603, -0.25078192, 0.6484098
380, 562114939, 0.30317712, 0.65180343, -0.25070637, 0.648369
381, 562131606, 0.30302942, 0.6519463, -0.25050062, 0.64837384
382, 562148273, 0.30280894, 0.6520774, -0.2501493, 0.6484807
383, 562164940, 0.3027511, 0.65202594, -0.24999307, 0.6486197
384, 562181607, 0.30263025, 0.6520758, -0.24988656, 0.6486671
385, 562198274, 0.30255592, 0.65202165, -0.24959317, 0.64886904
386, 562214941, 0.30245104, 0.65204567, -0.2493564, 0.6489848
387, 562231608, 0.30247855, 0.65188795, -0.24934244, 0.6491358
388, 562248275, 0.30270907, 0.65172696, -0.24969284, 0.6490552
389, 562264942, 0.30247524, 0.6518604, -0.24943955, 0.6491277
390, 562281609, 0.30204636, 0.65209085, -0.24885258, 0.6493211
391, 562298276, 0.30199736, 0.6521411, -0.24863164, 0.64937824
392, 562314943, 0.30198494, 0.6522019, -0.24856314, 0.64934903
393, 562331610, 0.30190575, 0.6522686, -0.24835089, 0.6494003
394, 562348277, 0.30184355, 0.65235406, -0.24818422, 0.64940697
395, 562364944, 0.3018976, 0.6523603, -0.24807838, 0.6494159
396, 562381611, 0.30199444, 0.65235823, -0.2480916, 0.64936805
397, 562398278, 0.30203363, 0.6524037, -0.24800059, 0.6493388
398, 562414945, 0.30203095, 0.6524329, -0.24791516, 0.6493433
399, 562431612, 0.30214036, 0.65243685, -0.24798296, 0.64926267
400, 562448279, 0.30211723, 0.6524678, -0.24797326, 0.6492459
401, 562464946, 0.30207825, 0.6524884, -0.24794687, 0.64925337
402, 562481613, 0.30209467, 0.65242827, -0.24799326, 0.6492884
403, 562498280, 0.30210152, 0.65233296, -0.24807091, 0.6493514
404, 562514947, 0.3021127, 0.6522133, -0.24813764, 0.64944094
405, 562531614, 0.30208322, 0.6521703, -0.2481266, 0.6495021
406, 562548281, 0.30206192, 0.6521607, -0.24812165, 0.6495235
407, 562564948, 0.3020041, 0.6521565, -0.24808015, 0.6495704
408, 562581615, 0.3019722, 0.65214384, -0.24808598, 0.6495957
409, 562598282, 0.30205718, 0.6520353, -0.24821563, 0.6496157
410, 562614949, 0.30224806, 0.6518834, -0.24847724, 0.6495793
411, 562631616, 0.30237395, 0.65178126, -0.24869303, 0.64954066
412, 562648283, 0.30243853, 0.6516948, -0.24884644, 0.6495385
413, 562664950, 0.30248797, 0.651651, -0.24902269, 0.64949185
414, 562681617, 0.30256027, 0.65157306, -0.24926026, 0.6494454
415, 562698284, 0.30265376, 0.6515296, -0.24951248, 0.64934844
416, 562714951, 0.3026429, 0.6515617, -0.24963802, 0.6492731
417, 562731618, 0.30261418, 0.6515352, -0.24973331, 0.64927644
418, 562748285, 0.30263263, 0.6514618, -0.24990033, 0.64927727
419, 562764952, 0.30264446, 0.65140927, -0.25000593, 0.64928377
420, 562781619, 0.30258703, 0.6513815, -0.2500666, 0.64931506
421, 562798286, 0.30256292, 0.65131325, -0.25021473, 0.64933777
422, 562814953, 0.3026746, 0.65114206, -0.25042766, 0.6493752
423, 562831620, 0.3026463, 0.65105194, -0.2505514, 0.6494311
424, 562848287, 0.30254772, 0.65097576, -0.25052777, 0.6495623
425, 562864954, 0.3025543, 0.65089226, -0.25061047, 0.64961123
426, 562881621, 0.30254346, 0.65079796, -0.250622, 0.64970624
427, 562898288, 0.30261785, 0.6506268, -0.25055963, 0.6498671
428, 562914955, 0.30276644, 0.6505006, -0.25056824, 0.6499208
429, 562931622, 0.3028352, 0.6503765, -0.25031582, 0.65011024
430, 562948289, 0.30285263, 0.6502953, -0.25000608, 0.6503024
431, 562964956, 0.3028824, 0.6502275, -0.24962133, 0.6505042
432, 562981623, 0.3029116, 0.6502043, -0.24926354, 0.650651
433, 562998290, 0.30304104, 0.65015894, -0.24905835, 0.6507147
434, 563014957, 0.30318248, 0.65003693, -0.24882105, 0.65086144
435, 563031624, 0.3032924, 0.64997125, -0.24860759, 0.6509574
436, 563048291, 0.30329445, 0.6499094, -0.24827883, 0.65114355
437, 563064958, 0.30324373, 0.64983624, -0.24812993, 0.65129703
438, 563081625, 0.30339685, 0.6496996, -0.24821994, 0.65132755
439, 563098292, 0.30348223, 0.6496283, -0.24825148, 0.65134704
440, 563114959, 0.30341128, 0.6496467, -0.24808703, 0.6514243
441, 563131626, 0.3034747, 0.6496201, -0.24797338, 0.6514646
442, 563148293, 0.30346143, 0.64961433, -0.24775, 0.6515615
443, 563164960, 0.3033503, 0.64972764, -0.24755086, 0.6515759
444, 563181627, 0.30345854, 0.6497426, -0.24755237, 0.65151006
445, 563198294, 0.3035952, 0.64974207, -0.24756874, 0.6514407
446, 563214961, 0.30358464, 0.6498052, -0.24761558, 0.65136486
447, 563231628, 0.30350956, 0.64991945, -0.24765612, 0.65127045
448, 563248295, 0.3035757, 0.64994806, -0.2477914, 0.6511597
449, 563264962, 0.30370805, 0.6499561, -0.24794973, 0.65102977
450, 563281629, 0.303701, 0.65004647, -0.24797371, 0.6509335
451, 563298296, 0.30366057, 0.65011024, -0.24798469, 0.65088457
452, 563314963, 0.30374074, 0.6500296, -0.2481307, 0.65087205
453, 563331630, 0.30384094, 0.6499878, -0.24830164, 0.6508017
454, 563348297, 0.30387598, 0.64998335, -0.24841715, 0.65074575
455, 563364964, 0.30399376, 0.64998364, -0.24849854, 0.6506594
456, 563381631, 0.3040616, 0.65002024, -0.24847935, 0.6505985
457, 563398298, 0.30406648, 0.6500931, -0.24843168, 0.65054154
458, 563414965, 0.30411473, 0.65012884, -0.24839209, 0.6504984
459, 563431632, 0.30425745, 0.65014714, -0.24847254, 0.6503826
460, 563448299, 0.30444044, 0.6501315, -0.24852282, 0.6502934
461, 563464966, 0.30452693, 0.650198, -0.24851975, 0.6501876
462, 563481633, 0.30456358, 0.6502291, -0.24849366, 0.6501493
463, 563498300, 0.30463243, 0.65021497, -0.24853188, 0.6501166
464, 563514967, 0.30469623, 0.6502525, -0.2485937, 0.65002555
465, 563531634, 0.30465057, 0.650341, -0.24859793, 0.6499567
466, 563548301, 0.30467868, 0.6503707, -0.24864951, 0.6498941
467, 563564968, 0.30464837, 0.6503908, -0.24861918, 0.6498998
468, 563581635, 0.30462712, 0.6503653, -0.24851935, 0.64997345
469, 563598302, 0.30453444, 0.6503287, -0.24836898, 0.650111
470, 563614969, 0.30456918, 0.65023375, -0.2483259, 0.6502062
471, 563631636, 0.3045895, 0.6502386, -0.24827719, 0.6502104
472, 563648303, 0.3046121, 0.65026563, -0.24826215, 0.65017843
473, 563664970, 0.30466837, 0.6502608, -0.24829555, 0.65014416
474, 563681637, 0.30466807, 0.65029675, -0.24830875, 0.65010333
475, 563698304, 0.30474332, 0.65022117, -0.24834299, 0.6501305
476, 563714971, 0.3047917, 0.6501262, -0.24837863, 0.6501892
477, 563731638, 0.30473375, 0.6501248, -0.2482923, 0.65025085
478, 563748305, 0.3047589, 0.65010047, -0.24824566, 0.65028113
479, 563764972, 0.30479303, 0.6500672, -0.24826558, 0.6502908
480, 563781639, 0.3047478, 0.6500761, -0.24815078, 0.65034693
481, 563798306, 0.30472252, 0.6500423, -0.24806891, 0.6504239
482, 563814973, 0.30476493, 0.65000635, -0.24814959, 0.65040904
483, 563831640, 0.30482367, 0.6499095, -0.24822931, 0.65044796
484, 563848307, 0.30484706, 0.6498509, -0.24835548, 0.6504473
485, 563864974, 0.30484894, 0.6497629, -0.24835642, 0.6505341
486, 563881641, 0.30480397, 0.6497343, -0.24832863, 0.6505942
487, 563898308, 0.30484167, 0.6496805, -0.24829224, 0.6506441
488, 563914975, 0.30475682, 0.64969295, -0.24823822, 0.65069205
489, 563931642, 0.30487642, 0.64957255, -0.24841309, 0.65068954
490, 563948309, 0.30512843, 0.649455, -0.24882068, 0.650533
491, 563964976, 0.30509308, 0.6495224, -0.24872568, 0.6505187
492, 563981643, 0.30507794, 0.6495833, -0.24858306, 0.65051943
493, 563998310, 0.30528387, 0.6494782, -0.24869423, 0.65048534
494, 564014977, 0.30528757, 0.64948773, -0.24871688, 0.6504653
495, 564031644, 0.3051113, 0.64955384, -0.2484977, 0.65056574
496, 564048311, 0.30513224, 0.6495472, -0.24850571, 0.6505594
497, 564064978, 0.30517477, 0.6495472, -0.24852784, 0.6505311
498, 564081645, 0.30523372, 0.64960885, -0.24854232, 0.65043634
499, 564098312, 0.30523494, 0.64968663, -0.24849701, 0.65037537
500, 564114979, 0.30532277, 0.64971256, -0.24854055, 0.65029156
501, 564131646, 0.30537477, 0.64972895, -0.24850263, 0.6502654
502, 564148313, 0.3053159, 0.64982724, -0.24842967, 0.6502227
503, 564164980, 0.30528256, 0.6498581, -0.24846484, 0.650194
504, 564181647, 0.3053239, 0.6498772, -0.24852076, 0.6501341
505, 564198314, 0.3052235, 0.6499598, -0.2483864, 0.65015
506, 564214981, 0.30518413, 0.6500056, -0.24834639, 0.650138
507, 564231648, 0.30521575, 0.6500488, -0.24835783, 0.65007555
508, 564248315, 0.30520454, 0.65014184, -0.24831301, 0.6500051
509, 564264982, 0.30508423, 0.65029514, -0.24807993, 0.6499972
510, 564281649, 0.3050468, 0.65041506, -0.24795702, 0.6499416
511, 564298316, 0.30503854, 0.6504895, -0.24789186, 0.6498959
512, 564314983, 0.3049628, 0.6506327, -0.24777642, 0.64983225
513, 564331650, 0.30491105, 0.6508001, -0.24769793, 0.64971864
514, 564348317, 0.30489507, 0.65097153, -0.24769124, 0.64955693
515, 564364984, 0.30483046, 0.6511768, -0.24760474, 0.64941454
516, 564381651, 0.3047216, 0.6514138, -0.24752867, 0.6492567
517, 564398318, 0.30466893, 0.6515939, -0.24752708, 0.6491014
518, 564414985, 0.30456495, 0.6517433, -0.24743919, 0.6490337
519, 564431652, 0.30449456, 0.65190583, -0.24735202, 0.64893687
520, 564448319, 0.30436715, 0.65204275, -0.24717951, 0.6489248
521, 564464986, 0.30429697, 0.65211535, -0.24703206, 0.64894086
522, 564481653, 0.30431813, 0.65214187, -0.24700913, 0.6489129
523, 564498320, 0.30431303, 0.65215755, -0.24695048, 0.6489219
524, 564514987, 0.30435523, 0.65216476, -0.24694052, 0.6488987
525, 564531654, 0.30436277, 0.6521937, -0.24695516, 0.6488605
526, 564548321, 0.304225, 0.6522968, -0.2468257, 0.6488708
527, 564564988, 0.30412945, 0.6523709, -0.24669178, 0.64889187
528, 564581655, 0.304101, 0.6523645, -0.24660338, 0.6489453
529, 564598322, 0.30404142, 0.65234387, -0.24646457, 0.64904666
530, 564614989, 0.30409977, 0.65234274, -0.24642856, 0.6490342
531, 564631656, 0.3041, 0.6523683, -0.24639526, 0.6490211
532, 564648323, 0.30402502, 0.65240556, -0.24628134, 0.6490618
533, 564664990, 0.30400896, 0.65241444, -0.24617833, 0.64909965
534, 564681657, 0.30389935, 0.6524758, -0.24605082, 0.64913756
535, 564698324, 0.30383536, 0.6525556, -0.2459046, 0.6491426
536, 564714991, 0.3039283, 0.6524877, -0.24592416, 0.64916
537, 564731658, 0.3039863, 0.65248495, -0.2460426, 0.6490908
538, 564748325, 0.30403048, 0.6524887, -0.24597116, 0.6490935
539, 564764992, 0.3039288, 0.6525859, -0.24583945, 0.6490933
540, 564781659, 0.30403474, 0.65245235, -0.24600227, 0.64911616
541, 564798326, 0.30431455, 0.6523734, -0.2464415, 0.6488979
542, 564814993, 0.3042633, 0.65251356, -0.24637268, 0.648807
543, 564831660, 0.3041808, 0.6526139, -0.24617167, 0.64882106
544, 564848327, 0.30435798, 0.65252984, -0.2463252, 0.6487643
545, 564864994, 0.30444393, 0.6524958, -0.2463642, 0.6487433
546, 564881661, 0.3043976, 0.6525178, -0.24616335, 0.6488191
547, 564898328, 0.30452752, 0.6524653, -0.24615045, 0.6488158
548, 564914995, 0.30474845, 0.6523688, -0.24631393, 0.6487471
549, 564931662, 0.30481592, 0.6522983, -0.24631721, 0.6487851
550, 564948329, 0.3047674, 0.6522478, -0.2462067, 0.64890057
551, 564964996, 0.30475616, 0.6521565, -0.24617429, 0.64900994
552, 564981663, 0.30484647, 0.6520646, -0.24624038, 0.6490348
553, 564998330, 0.3048752, 0.6519525, -0.2461491, 0.6491686
554, 565014997, 0.30481842, 0.6518681, -0.24603881, 0.64932173
555, 565031664, 0.30478495, 0.65175706, -0.24598219, 0.6494704
556, 565048331, 0.30472004, 0.65164214, -0.24598931, 0.6496135
557, 565064998, 0.30464536, 0.65156955, -0.24596034, 0.6497321
558, 565081665, 0.30456126, 0.65153205, -0.24586847, 0.64984405
559, 565098332, 0.30453554, 0.65149295, -0.24582148, 0.6499129
560, 565114999, 0.30462956, 0.6514129, -0.24584052, 0.64994186
561, 565131666, 0.30476505, 0.65133196, -0.24596712, 0.6499117
562, 565148333, 0.30493656, 0.65121984, -0.24607405, 0.64990324
563, 565165000, 0.30501473, 0.6511588, -0.24610364, 0.6499164
564, 565181667, 0.30507645, 0.65106773, -0.24604644, 0.6500002
565, 565198334, 0.3051814, 0.65095603, -0.2460255, 0.6500708
566, 565215001, 0.30523822, 0.6508412, -0.24602291, 0.65016
567, 565231668, 0.30532965, 0.65071744, -0.24607585, 0.650221
568, 565248335, 0.30545065, 0.65060234, -0.2461205, 0.6502624
569, 565265002, 0.30547678, 0.6505501, -0.24610531, 0.6503081
570, 565281669, 0.30557215, 0.65047336, -0.24617223, 0.65031487
571, 565298336, 0.30569997, 0.6503371, -0.2462835, 0.65034896
572, 565315003, 0.30578572, 0.6502185, -0.24645267, 0.6503632
573, 565331670, 0.30576426, 0.6501576, -0.24641111, 0.6504497
574, 565348337, 0.30566278, 0.650165, -0.24628355, 0.6505384
575, 565365004, 0.3056568, 0.65011877, -0.24631685, 0.65057474
576, 565381671, 0.3057622, 0.6500549, -0.24643904, 0.65054286
577, 565398338, 0.3058163, 0.65001225, -0.24652196, 0.65052855
578, 565415005, 0.30587113, 0.6499291, -0.24659404, 0.6505586
579, 565431672, 0.3059713, 0.64989275, -0.24674912, 0.6504891
580, 565448339, 0.30593902, 0.6498971, -0.24676833, 0.6504926
581, 565465006, 0.3059592, 0.6498628, -0.24681821, 0.6504984
582, 565481673, 0.30603883, 0.6497661, -0.24699773, 0.6504895
583, 565498340, 0.30610487, 0.6496469, -0.2470939, 0.6505409
584, 565515007, 0.3060104, 0.6496124, -0.24704562, 0.65063804
585, 565531674, 0.30600607, 0.6495807, -0.24703638, 0.6506754
586, 565548341, 0.30595326, 0.64958626, -0.24705632, 0.6506869
587, 565565008, 0.30599108, 0.64951736, -0.24719511, 0.65068525
588, 565581675, 0.30605534, 0.64938307, -0.24737103, 0.6507222
589, 565598342, 0.3060646, 0.64931697, -0.24749263, 0.6507375
590, 565615009, 0.3061208, 0.6492278, -0.24750432, 0.65079576
591, 565631676, 0.30602267, 0.6492054, -0.24750324, 0.65086466
592, 565648343, 0.30606505, 0.64906263, -0.24766272, 0.65092635
593, 565665010, 0.30629754, 0.6488861, -0.24803317, 0.65085196
594, 565681677, 0.30621538, 0.6489244, -0.24804516, 0.6508479
595, 565698344, 0.30619508, 0.6489433, -0.24798803, 0.65086037
596, 565715011, 0.30628118, 0.6489011, -0.2481299, 0.65080786
597, 565731678, 0.3062647, 0.6489113, -0.24816902, 0.6507905
598, 565748345, 0.30617335, 0.6489614, -0.24810162, 0.65080917
599, 565765012, 0.30625153, 0.64891326, -0.24820568, 0.6507808
600, 565781679, 0.30633107, 0.6488561, -0.24833699, 0.6507503
601, 565798346, 0.30624446, 0.64888805, -0.24828286, 0.6507797
602, 565815013, 0.30615884, 0.64891404, -0.2482397, 0.6508105
603, 565831680, 0.30609566, 0.6489424, -0.24820271, 0.65082616
604, 565848347, 0.30608925, 0.6488888, -0.24820533, 0.6508815
605, 565865014, 0.30605158, 0.64880526, -0.24815653, 0.6510013
606, 565881681, 0.30589366, 0.6487598, -0.24802166, 0.6511723
607, 565898348, 0.30583787, 0.64864147, -0.24798259, 0.6513311
608, 565915015, 0.3058322, 0.6484817, -0.2480083, 0.651483
609, 565931682, 0.30569658, 0.64836586, -0.24788816, 0.6517076
610, 565948349, 0.3055944, 0.64819103, -0.24769886, 0.6520014
611, 565965016, 0.30565172, 0.6479682, -0.24767922, 0.65220356
612, 565981683, 0.30565766, 0.64778626, -0.24762508, 0.6524019
613, 565998350, 0.3056668, 0.6476588, -0.24759503, 0.65253556
614, 566015017, 0.30571595, 0.6475249, -0.24761981, 0.65263605
615, 566031684, 0.30579174, 0.64743394, -0.24761713, 0.65269184
616, 566048351, 0.3060232, 0.6472279, -0.24770597, 0.65275395
617, 566065018, 0.30607054, 0.64711535, -0.24764444, 0.6528666
618, 566081685, 0.30612305, 0.6470367, -0.24764597, 0.6529195
619, 566098352, 0.30620557, 0.64696753, -0.24760595, 0.6529645
620, 566115019, 0.3062536, 0.6469052, -0.2475522, 0.6530241
621, 566131686, 0.3064002, 0.6467918, -0.24759328, 0.65305203
622, 566148353, 0.30650368, 0.6466891, -0.24766655, 0.65307736
623, 566165020, 0.3065571, 0.6466001, -0.24767321, 0.65313786
624, 566181687, 0.3066486, 0.64653605, -0.24775064, 0.6531289
625, 566198354, 0.30661458, 0.64650494, -0.24775441, 0.6531743
626, 566215021, 0.306485, 0.6465258, -0.2477363, 0.6532215
627, 566231688, 0.3064521, 0.64647144, -0.24774228, 0.6532883
628, 566248355, 0.3064545, 0.64637893, -0.24774927, 0.6533761
629, 566265022, 0.30645373, 0.6463035, -0.24773635, 0.6534559
630, 566281689, 0.30646324, 0.646273, -0.24769287, 0.65349805
631, 566298356, 0.30658674, 0.64617467, -0.24773915, 0.6535198
632, 566315023, 0.30662555, 0.6461337, -0.2476827, 0.65356344
