PacketCounter,SampleTimeFine,Quat_W,Quat_X,Quat_Y,Quat_Z
1, 555844853, 0.37672353, 0.43318513, -0.50025463, 0.6482093
2, 555861520, 0.3772036, 0.4328034, -0.50022537, 0.6482077
3, 555878187, 0.37735668, 0.43245223, -0.49993595, 0.6485763
4, 555894854, 0.37743506, 0.43192998, -0.49981537, 0.6489716
5, 555911521, 0.37734926, 0.431325, -0.49983075, 0.6494116
6, 555928188, 0.3773974, 0.4307236, -0.49982324, 0.6497887
7, 555944855, 0.37732196, 0.4302738, -0.49978334, 0.650161
8, 555961522, 0.377155, 0.42987567, -0.4997978, 0.65051
9, 555978189, 0.37700045, 0.42955565, -0.49977472, 0.6508286
10, 555994856, 0.3768634, 0.42928007, -0.49970695, 0.6511418
11, 556011523, 0.3767924, 0.42903998, -0.49957755, 0.6514404
12, 556028190, 0.3766941, 0.42889684, -0.4993707, 0.6517501
13, 556044857, 0.37676203, 0.42866963, -0.49924362, 0.6519576
14, 556061524, 0.37685812, 0.42848232, -0.49904028, 0.65218073
15, 556078191, 0.37696955, 0.4282967, -0.4988367, 0.65239406
16, 556094858, 0.377007, 0.42813066, -0.49861333, 0.65265214
17, 556111525, 0.37703028, 0.4280057, -0.4983475, 0.6529234
18, 556128192, 0.3769863, 0.42799184, -0.49801683, 0.65321034
19, 556144859, 0.37694675, 0.42806563, -0.49766886, 0.6534499
20, 556161526, 0.37682053, 0.42817718, -0.49731857, 0.6537163
21, 556178193, 0.37665957, 0.42839754, -0.496891, 0.6539897
22, 556194860, 0.3764314, 0.4287066, -0.49646756, 0.6542402
23, 556211527, 0.3761991, 0.42908424, -0.49603316, 0.65445566
24, 556228194, 0.37593353, 0.42949304, -0.49559015, 0.6546758
25, 556244861, 0.3757554, 0.42982733, -0.49521485, 0.65484256
26, 556261528, 0.3755867, 0.4301559, -0.4948423, 0.6550053
27, 556278195, 0.3754355, 0.43044022, -0.49447584, 0.65518194
28, 556294862, 0.37529808, 0.430644, -0.49417946, 0.6553502
29, 556311529, 0.37513068, 0.43090117, -0.493846, 0.6555285
30, 556328196, 0.37505582, 0.43112895, -0.49366036, 0.65556127
31, 556344863, 0.37502402, 0.43124893, -0.49347058, 0.6556433
32, 556361530, 0.37498102, 0.43146262, -0.49315363, 0.65576583
33, 556378197, 0.37502682, 0.43156764, -0.4929964, 0.65578884
34, 556394864, 0.37499282, 0.43174073, -0.49288002, 0.6557817
35, 556411531, 0.37492707, 0.4318744, -0.49282974, 0.65576905
36, 556428198, 0.37484923, 0.43195462, -0.49283597, 0.6557561
37, 556444865, 0.37483656, 0.4319776, -0.4928745, 0.65571934
38, 556461532, 0.3747942, 0.43202078, -0.49289352, 0.6557006
39, 556478199, 0.37475428, 0.43212795, -0.49292773, 0.65562713
40, 556494866, 0.37469682, 0.43226695, -0.4930385, 0.6554851
41, 556511533, 0.3746235, 0.4324619, -0.49309906, 0.6553529
42, 556528200, 0.37463552, 0.432597, -0.4931781, 0.6551974
43, 556544867, 0.37478364, 0.4326908, -0.49321264, 0.6550246
44, 556561534, 0.3749506, 0.43276244, -0.4932211, 0.6548754
45, 556578201, 0.37511447, 0.43280426, -0.49326497, 0.6547209
46, 556594868, 0.37528977, 0.43279698, -0.49331105, 0.6545906
47, 556611535, 0.375439, 0.43290302, -0.4932588, 0.65447414
48, 556628202, 0.37562233, 0.43296933, -0.49335748, 0.6542507
49, 556644869, 0.37578192, 0.43304956, -0.4934703, 0.65402085
50, 556661536, 0.37593693, 0.43316722, -0.49352545, 0.65381205
51, 556678203, 0.37611824, 0.4332783, -0.4936237, 0.65355986
52, 556694870, 0.37637815, 0.43334615, -0.49373165, 0.6532839
53, 556711537, 0.3765764, 0.43345493, -0.49378532, 0.6530566
54, 556728204, 0.37676358, 0.43355042, -0.49387804, 0.6528152
55, 556744871, 0.37697867, 0.43362847, -0.49404135, 0.65251553
56, 556761538, 0.37714955, 0.43373638, -0.49418634, 0.65223527
57, 556778205, 0.37735838, 0.43377873, -0.49435472, 0.6519588
58, 556794872, 0.37758946, 0.43378997, -0.49448624, 0.65171766
59, 556811539, 0.37788153, 0.43375808, -0.49463904, 0.6514536
60, 556828206, 0.37812337, 0.4337529, -0.49478933, 0.6512025
61, 556844873, 0.37826538, 0.4337788, -0.49493924, 0.6509889
62, 556861540, 0.3783889, 0.43377352, -0.49514067, 0.6507674
63, 556878207, 0.37852076, 0.43379477, -0.49530947, 0.6505482
64, 556894874, 0.3786693, 0.43377933, -0.4955091, 0.6503198
65, 556911541, 0.37883186, 0.4337995, -0.49569163, 0.6500727
66, 556928208, 0.37894198, 0.4338402, -0.49583942, 0.64986855
67, 556944875, 0.3790063, 0.43385884, -0.49598524, 0.64970726
68, 556961542, 0.37903622, 0.4339344, -0.496059, 0.64958304
69, 556978209, 0.37909526, 0.4339738, -0.49616897, 0.64943826
70, 556994876, 0.37911624, 0.43411085, -0.49619225, 0.6493166
71, 557011543, 0.3791598, 0.43418008, -0.49626312, 0.64919066
72, 557028210, 0.37931338, 0.43422335, -0.4963498, 0.6490058
73, 557044877, 0.37935668, 0.43435696, -0.49639687, 0.6488549
74, 557061544, 0.37935618, 0.43442056, -0.49654227, 0.64870137
75, 557078211, 0.37934884, 0.43447247, -0.49665257, 0.64858645
76, 557094878, 0.37941316, 0.43449742, -0.4967709, 0.64844155
77, 557111545, 0.37951237, 0.43446895, -0.49693018, 0.64828056
78, 557128212, 0.3796327, 0.43439814, -0.49709266, 0.64813286
79, 557144879, 0.37981144, 0.4342169, -0.4973042, 0.64798725
80, 557161546, 0.38001063, 0.4340267, -0.49750394, 0.6478446
81, 557178213, 0.3802309, 0.43382293, -0.49774772, 0.6476646
82, 557194880, 0.3804849, 0.43346164, -0.4980421, 0.647531
83, 557211547, 0.38080272, 0.43307433, -0.49821126, 0.6474732
84, 557228214, 0.38122386, 0.43255758, -0.49846458, 0.64737594
85, 557244881, 0.38155696, 0.4320522, -0.4987866, 0.6472691
86, 557261548, 0.3817563, 0.43156773, -0.49912927, 0.6472104
87, 557278215, 0.38194692, 0.43107074, -0.49947974, 0.6471591
88, 557294882, 0.3821854, 0.43054304, -0.49982324, 0.6471042
89, 557311549, 0.3823828, 0.43000278, -0.5001375, 0.6471041
90, 557328216, 0.38247892, 0.4295034, -0.5004479, 0.6471388
91, 557344883, 0.38253406, 0.42906323, -0.5007817, 0.6471399
92, 557361550, 0.3825588, 0.4287075, -0.50110203, 0.6471131
93, 557378217, 0.38247138, 0.42850056, -0.5013185, 0.64713424
94, 557394884, 0.3824894, 0.42828292, -0.5015507, 0.64708793
95, 557411551, 0.38246897, 0.4280927, -0.50175875, 0.64706445
96, 557428218, 0.38241327, 0.42794454, -0.5019591, 0.64704
97, 557444885, 0.38232064, 0.42780566, -0.5021716, 0.64702183
98, 557461552, 0.38217455, 0.4277687, -0.50224304, 0.64707696
99, 557478219, 0.38211647, 0.42760915, -0.5024105, 0.6470866
100, 557494886, 0.38204136, 0.42742708, -0.5025338, 0.6471556
101, 557511553, 0.38199672, 0.42720488, -0.5026844, 0.6472118
102, 557528220, 0.3819444, 0.42694512, -0.5028505, 0.64728516
103, 557544887, 0.38186446, 0.4266937, -0.5030057, 0.6473774
104, 557561554, 0.38187894, 0.42641255, -0.50315285, 0.64743966
105, 557578221, 0.3819436, 0.4260597, -0.5033721, 0.6474634
106, 557594888, 0.38202012, 0.42565212, -0.5036175, 0.64749557
107, 557611555, 0.3820804, 0.42525434, -0.50384194, 0.64754647
108, 557628222, 0.38213018, 0.4248419, -0.5040839, 0.6475997
109, 557644889, 0.38210475, 0.42453268, -0.5042919, 0.6476556
110, 557661556, 0.38203555, 0.42429408, -0.5044725, 0.64771223
111, 557678223, 0.381978, 0.4241424, -0.5046035, 0.6477432
112, 557694890, 0.38185742, 0.42407316, -0.50471693, 0.6477715
113, 557711557, 0.38167176, 0.42406955, -0.50478536, 0.6478298
114, 557728224, 0.38150027, 0.42407268, -0.5048537, 0.6478754
115, 557744891, 0.3813133, 0.42410904, -0.5048791, 0.64794207
116, 557761558, 0.38118747, 0.42415702, -0.50488305, 0.64798146
117, 557778225, 0.38103926, 0.4242509, -0.5048491, 0.6480338
118, 557794892, 0.38093764, 0.42437467, -0.50478965, 0.6480588
119, 557811559, 0.38077146, 0.42452422, -0.5047289, 0.6481057
120, 557828226, 0.38055742, 0.4247236, -0.50465953, 0.64815503
121, 557844893, 0.38034514, 0.42494187, -0.5045617, 0.6482127
122, 557861560, 0.38022754, 0.42515197, -0.5044517, 0.64822966
123, 557878227, 0.38006535, 0.42539805, -0.50433415, 0.6482544
124, 557894894, 0.37989742, 0.42563424, -0.5042404, 0.6482707
125, 557911561, 0.37975582, 0.4258593, -0.5041274, 0.64829385
126, 557928228, 0.37961292, 0.4260408, -0.5040217, 0.64834046
127, 557944895, 0.37943065, 0.42628407, -0.5038772, 0.64839965
128, 557961562, 0.37933418, 0.42645812, -0.50379443, 0.648406
129, 557978229, 0.3792415, 0.42659938, -0.50365716, 0.6484741
130, 557994896, 0.37913284, 0.4267567, -0.50350183, 0.6485546
131, 558011563, 0.3790929, 0.42690504, -0.50337774, 0.6485768
132, 558028230, 0.37913206, 0.42697006, -0.5033279, 0.6485496
133, 558044897, 0.37918502, 0.4270678, -0.5031718, 0.64857554
134, 558061564, 0.3792925, 0.4271328, -0.5030338, 0.648577
135, 558078231, 0.37934193, 0.42714578, -0.5030145, 0.6485543
136, 558094898, 0.3793441, 0.4272118, -0.502977, 0.64853865
137, 558111565, 0.37929538, 0.42726603, -0.50295234, 0.64855057
138, 558128232, 0.3793038, 0.42727804, -0.5029707, 0.64852345
139, 558144899, 0.37930718, 0.4272817, -0.502991, 0.64850324
140, 558161566, 0.37931147, 0.4273163, -0.50298804, 0.6484805
141, 558178233, 0.37935412, 0.42734334, -0.5029661, 0.64845455
142, 558194900, 0.37935495, 0.42737848, -0.50292856, 0.6484601
143, 558211567, 0.3793816, 0.42735052, -0.502917, 0.6484719
144, 558228234, 0.3794216, 0.42733222, -0.50289625, 0.64847666
145, 558244901, 0.37945527, 0.42730317, -0.50289625, 0.648476
146, 558261568, 0.37948427, 0.4272839, -0.5028973, 0.6484709
147, 558278235, 0.37948674, 0.42727917, -0.50286543, 0.64849734
148, 558294902, 0.37948358, 0.4272975, -0.50277454, 0.6485576
149, 558311569, 0.37948927, 0.42735666, -0.5026231, 0.64863276
150, 558328236, 0.3794196, 0.427374, -0.50252837, 0.6487353
151, 558344903, 0.37931016, 0.42740312, -0.5024097, 0.64887196
152, 558361570, 0.37917596, 0.42743567, -0.5023199, 0.6489987
153, 558378237, 0.3790494, 0.42748404, -0.5022474, 0.64909685
154, 558394904, 0.37897828, 0.42749473, -0.502184, 0.64918035
155, 558411571, 0.37895495, 0.42746437, -0.5021039, 0.64927584
156, 558428238, 0.37894878, 0.42738837, -0.5020376, 0.6493808
157, 558444905, 0.37895995, 0.42729965, -0.5019559, 0.6494958
158, 558461572, 0.3789793, 0.42719802, -0.5018894, 0.6496027
159, 558478239, 0.37897068, 0.4270863, -0.50183785, 0.64972115
160, 558494906, 0.378936, 0.42699876, -0.50179535, 0.64983165
161, 558511573, 0.3788889, 0.42695433, -0.50174326, 0.64992845
162, 558528240, 0.37882587, 0.42693818, -0.5016754, 0.6500282
163, 558544907, 0.37881067, 0.4269146, -0.50159717, 0.6501129
164, 558561574, 0.37876916, 0.4268757, -0.5015293, 0.6502149
165, 558578241, 0.37871593, 0.42680883, -0.50147706, 0.65033007
166, 558594908, 0.3786623, 0.42677277, -0.5014252, 0.65042496
167, 558611575, 0.37859988, 0.42673954, -0.5014072, 0.650497
168, 558628242, 0.37859905, 0.42668328, -0.5013987, 0.65054095
169, 558644909, 0.37867975, 0.4266114, -0.501365, 0.6505671
170, 558661576, 0.3787937, 0.42650256, -0.50135106, 0.65058285
171, 558678243, 0.37889805, 0.42639372, -0.50133955, 0.65060234
172, 558694910, 0.37897468, 0.42633167, -0.50133294, 0.6506036
173, 558711577, 0.37906498, 0.4262562, -0.5013625, 0.65057755
174, 558728244, 0.37918428, 0.42622268, -0.5013962, 0.650504
175, 558744911, 0.37927508, 0.42625475, -0.5013934, 0.6504322
176, 558761578, 0.37936282, 0.42629454, -0.5013874, 0.6503597
177, 558778245, 0.37948057, 0.426339, -0.50136876, 0.6502761
178, 558794912, 0.37959477, 0.42636323, -0.50137264, 0.6501905
179, 558811579, 0.37969914, 0.42640433, -0.5013854, 0.6500928
180, 558828246, 0.37973452, 0.42643833, -0.5013917, 0.65004486
181, 558844913, 0.37973636, 0.42649287, -0.501379, 0.650018
182, 558861580, 0.37978166, 0.42657793, -0.50136995, 0.64994276
183, 558878247, 0.3798777, 0.42660457, -0.5013815, 0.64986
184, 558894914, 0.3800531, 0.42654702, -0.5013586, 0.649813
185, 558911581, 0.38026288, 0.42650107, -0.501256, 0.64979964
186, 558928248, 0.38042283, 0.4264095, -0.5013009, 0.6497315
187, 558944915, 0.38046688, 0.42637923, -0.5013593, 0.64968055
188, 558961582, 0.3804821, 0.42638043, -0.50139725, 0.64964145
189, 558978249, 0.38048625, 0.4264047, -0.5014107, 0.64961267
190, 558994916, 0.38054264, 0.42641163, -0.50139946, 0.6495839
191, 559011583, 0.3805729, 0.42643902, -0.50136364, 0.64957577
192, 559028250, 0.38061848, 0.42643812, -0.50135577, 0.64955574
193, 559044917, 0.380622, 0.42642608, -0.5014075, 0.6495215
194, 559061584, 0.38062346, 0.42646822, -0.5014251, 0.6494794
195, 559078251, 0.38067272, 0.426495, -0.50143707, 0.6494237
196, 559094918, 0.38075203, 0.4265233, -0.50143075, 0.6493635
197, 559111585, 0.38086, 0.42656714, -0.5014211, 0.6492789
198, 559128252, 0.38087788, 0.4266188, -0.50140387, 0.6492478
199, 559144919, 0.38086444, 0.42671278, -0.501356, 0.6492309
200, 559161586, 0.3808314, 0.4267753, -0.5013875, 0.6491848
201, 559178253, 0.38073394, 0.4268952, -0.5013917, 0.6491599
202, 559194920, 0.38066474, 0.42695728, -0.50142443, 0.6491344
203, 559211587, 0.38061053, 0.427017, -0.50142163, 0.64912903
204, 559228254, 0.3805804, 0.42705286, -0.50142735, 0.64911866
205, 559244921, 0.38048652, 0.42711723, -0.5014122, 0.64914304
206, 559261588, 0.38040164, 0.42714027, -0.5014245, 0.6491682
207, 559278255, 0.38028318, 0.42715618, -0.5014393, 0.64921576
208, 559294922, 0.38020444, 0.42714658, -0.5014934, 0.64922625
209, 559311589, 0.38009346, 0.42715463, -0.50153995, 0.64925015
210, 559328256, 0.37997442, 0.42715204, -0.50158995, 0.6492829
211, 559344923, 0.3798451, 0.4271137, -0.501676, 0.6493172
212, 559361590, 0.37971696, 0.4270465, -0.5018024, 0.6493387
213, 559378257, 0.3795299, 0.42703533, -0.5019106, 0.64937174
214, 559394924, 0.37933064, 0.42701915, -0.5020109, 0.64942133
215, 559411591, 0.37915468, 0.42695543, -0.50214726, 0.64946055
216, 559428258, 0.37901118, 0.4268857, -0.50226766, 0.64949703
217, 559444925, 0.3788654, 0.42681652, -0.5023938, 0.64953
218, 559461592, 0.37873155, 0.42673138, -0.502511, 0.6495734
219, 559478259, 0.37860215, 0.4265951, -0.50265247, 0.6496288
220, 559494926, 0.37848192, 0.42646688, -0.5027577, 0.64970165
221, 559511593, 0.37838215, 0.4263809, -0.5028477, 0.64974654
222, 559528260, 0.37825623, 0.42633894, -0.502956, 0.6497636
223, 559544927, 0.37807873, 0.42632326, -0.5030493, 0.6498049
224, 559561594, 0.3778999, 0.4262853, -0.50314474, 0.64986
225, 559578261, 0.37772068, 0.42627507, -0.5032113, 0.6499194
226, 559594928, 0.37756038, 0.42624128, -0.50328, 0.64998144
227, 559611595, 0.3773758, 0.42627707, -0.50329643, 0.6500525
228, 559628262, 0.37722644, 0.42631555, -0.5033023, 0.6501094
229, 559644929, 0.37710163, 0.4263285, -0.50332546, 0.65015537
230, 559661596, 0.3770294, 0.42626205, -0.50334424, 0.65022624
231, 559678263, 0.37695867, 0.42621353, -0.50333947, 0.6503027
232, 559694930, 0.37689924, 0.42622757, -0.5033476, 0.6503217
233, 559711597, 0.37685812, 0.42619726, -0.50336236, 0.650354
234, 559728264, 0.37691504, 0.42613652, -0.50329727, 0.6504111
235, 559744931, 0.37699723, 0.42611754, -0.5031754, 0.6504702
236, 559761598, 0.37701625, 0.42610708, -0.50317043, 0.65046984
237, 559778265, 0.37692034, 0.42617792, -0.5031428, 0.6505004
238, 559794932, 0.37678507, 0.42630273, -0.5030692, 0.65055394
239, 559811599, 0.37665287, 0.42641407, -0.50301194, 0.65060186
240, 559828266, 0.37656173, 0.4265264, -0.50293183, 0.65064275
241, 559844933, 0.37644267, 0.42664486, -0.50286967, 0.6506821
242, 559861600, 0.3763074, 0.42677632, -0.50282186, 0.65071106
243, 559878267, 0.3762105, 0.42692235, -0.50275165, 0.65072566
244, 559894934, 0.37610012, 0.4270807, -0.502683, 0.6507386
245, 559911601, 0.376054, 0.42722392, -0.5026315, 0.650711
246, 559928268, 0.37599975, 0.42738602, -0.50256455, 0.6506876
247, 559944935, 0.37599948, 0.42748922, -0.50253594, 0.6506421
248, 559961602, 0.3759796, 0.42756453, -0.5025098, 0.6506243
249, 559978269, 0.37592852, 0.42769855, -0.5023801, 0.6506659
250, 559994936, 0.37592235, 0.4277516, -0.50232553, 0.65067655
251, 560011603, 0.37585652, 0.42783374, -0.5022382, 0.65072805
252, 560028270, 0.37576428, 0.42793784, -0.5021499, 0.650781
253, 560044937, 0.37566274, 0.42804384, -0.50209785, 0.6508101
254, 560061604, 0.37556604, 0.42818022, -0.50200474, 0.6508481
255, 560078271, 0.37551475, 0.4282994, -0.5019109, 0.6508715
256, 560094938, 0.3754551, 0.42842856, -0.5017937, 0.65091145
257, 560111605, 0.37542433, 0.4285207, -0.5017214, 0.6509242
258, 560128272, 0.37538636, 0.42862314, -0.5016482, 0.6509351
259, 560144939, 0.3753935, 0.42870232, -0.5015724, 0.6509373
260, 560161606, 0.37544796, 0.42873296, -0.501536, 0.6509137
261, 560178273, 0.37549874, 0.4287837, -0.50149566, 0.65088195
262, 560194940, 0.37551647, 0.42882797, -0.5014721, 0.6508609
263, 560211607, 0.3755081, 0.42886785, -0.5014681, 0.6508423
264, 560228274, 0.37550455, 0.42890406, -0.5014476, 0.6508363
265, 560244941, 0.37553042, 0.42890948, -0.5014463, 0.6508188
266, 560261608, 0.3755664, 0.4289105, -0.5014436, 0.6507995
267, 560278275, 0.37561044, 0.42891648, -0.5014524, 0.6507634
268, 560294942, 0.37567228, 0.4289187, -0.5014635, 0.6507177
269, 560311609, 0.37571508, 0.42891473, -0.50148916, 0.65067583
270, 560328276, 0.37577817, 0.4289475, -0.5014829, 0.65062267
271, 560344943, 0.375843, 0.4289891, -0.5014813, 0.6505589
272, 560361610, 0.3758863, 0.42900932, -0.50148445, 0.6505181
273, 560378277, 0.37592766, 0.42904627, -0.5014849, 0.65046966
274, 560394944, 0.37597057, 0.42910334, -0.50148416, 0.6504078
275, 560411611, 0.37596527, 0.42921424, -0.50150055, 0.65032494
276, 560428278, 0.37591723, 0.42937323, -0.50149816, 0.6502496
277, 560444945, 0.37586188, 0.42952278, -0.501487, 0.65019137
278, 560461612, 0.37582147, 0.4296672, -0.5014388, 0.6501565
279, 560478279, 0.3757739, 0.42977795, -0.5014153, 0.6501289
280, 560494946, 0.37572944, 0.42981672, -0.5014161, 0.65012836
281, 560511613, 0.3757123, 0.42980346, -0.50142115, 0.65014315
282, 560528280, 0.37568468, 0.42984802, -0.5014154, 0.65013427
283, 560544947, 0.3756715, 0.42985967, -0.5014116, 0.6501369
284, 560561614, 0.37571043, 0.4298255, -0.5013492, 0.6501851
285, 560578281, 0.3757426, 0.42981964, -0.50125635, 0.650242
286, 560594948, 0.37569296, 0.42981735, -0.5012594, 0.6502698
287, 560611615, 0.37557805, 0.42987755, -0.50122535, 0.65032274
288, 560628282, 0.37544248, 0.4299148, -0.50121886, 0.65038145
289, 560644949, 0.3753095, 0.42995864, -0.50123084, 0.65041995
290, 560661616, 0.37524065, 0.43002123, -0.5011963, 0.650445
291, 560678283, 0.3751945, 0.43004438, -0.50116193, 0.6504826
292, 560694950, 0.37516034, 0.4300362, -0.50115854, 0.6505104
293, 560711617, 0.37515026, 0.43003383, -0.5011615, 0.65051556
294, 560728284, 0.3751633, 0.43003714, -0.50117725, 0.65049374
295, 560744951, 0.37521383, 0.43000132, -0.5012108, 0.65046227
296, 560761618, 0.3752837, 0.42997748, -0.5012273, 0.6504251
297, 560778285, 0.37538522, 0.42992187, -0.5012677, 0.65037215
298, 560794952, 0.37542275, 0.4298576, -0.50130546, 0.6503638
299, 560811619, 0.3754954, 0.42980745, -0.50128084, 0.650374
300, 560828286, 0.3755766, 0.42970476, -0.5013245, 0.6503613
301, 560844953, 0.37557647, 0.42967167, -0.501384, 0.65033746
302, 560861620, 0.37558976, 0.4296523, -0.5014333, 0.6503045
303, 560878287, 0.3756193, 0.42963618, -0.50145423, 0.650282
304, 560894954, 0.37568226, 0.4295875, -0.50147694, 0.65026027
305, 560911621, 0.37576944, 0.4295507, -0.5014751, 0.6502357
306, 560928288, 0.3758277, 0.42952925, -0.50147, 0.6502199
307, 560944955, 0.37585437, 0.42951798, -0.5014819, 0.6502028
308, 560961622, 0.3758805, 0.42948502, -0.50152653, 0.650175
309, 560978289, 0.3759117, 0.4294635, -0.50155914, 0.65014607
310, 560994956, 0.3759886, 0.42941612, -0.50158644, 0.6501119
311, 561011623, 0.37608594, 0.429366, -0.5016101, 0.6500705
312, 561028290, 0.37614387, 0.42933306, -0.50160754, 0.6500607
313, 561044957, 0.3761653, 0.4292961, -0.5016104, 0.6500705
314, 561061624, 0.3761423, 0.4292897, -0.5016021, 0.65009445
315, 561078291, 0.3761259, 0.42930636, -0.501604, 0.65009135
316, 561094958, 0.37611482, 0.42929733, -0.50162065, 0.650091
317, 561111625, 0.37612268, 0.42927712, -0.5016066, 0.6501105
318, 561128292, 0.37612626, 0.4292574, -0.50156105, 0.6501567
319, 561144959, 0.37615693, 0.42921245, -0.5015332, 0.65019006
320, 561161626, 0.37619632, 0.4291767, -0.5014642, 0.6502441
321, 561178293, 0.37625054, 0.42909846, -0.501392, 0.6503201
322, 561194960, 0.37627938, 0.4289809, -0.50134647, 0.6504161
323, 561211627, 0.3763106, 0.42884657, -0.5013199, 0.65050715
324, 561228294, 0.37629884, 0.4287012, -0.5013046, 0.6506214
325, 561244961, 0.37628442, 0.428565, -0.50127596, 0.6507415
326, 561261628, 0.3762625, 0.42841393, -0.5012421, 0.65087974
327, 561278295, 0.37621915, 0.4282757, -0.50121903, 0.6510137
328, 561294962, 0.37616906, 0.42814288, -0.5011779, 0.6511615
329, 561311629, 0.37616906, 0.42800722, -0.5011529, 0.65127
330, 561328296, 0.3761733, 0.42784756, -0.50113976, 0.6513825
331, 561344963, 0.37614182, 0.4277024, -0.50115335, 0.65148556
332, 561361630, 0.37612608, 0.42759332, -0.5011785, 0.65154684
333, 561378297, 0.37611985, 0.42748183, -0.50119925, 0.65160763
334, 561394964, 0.37616947, 0.42730084, -0.5012341, 0.65167093
335, 561411631, 0.37624353, 0.42717987, -0.5011809, 0.65174836
336, 561428298, 0.37622628, 0.42709613, -0.5012498, 0.6517603
337, 561444965, 0.3761493, 0.42705333, -0.5013371, 0.65176564
338, 561461632, 0.37605637, 0.42701745, -0.5014348, 0.6517677
339, 561478299, 0.3760081, 0.42696592, -0.5015205, 0.65176326
340, 561494966, 0.37596592, 0.4269242, -0.50158554, 0.6517648
341, 561511633, 0.37592763, 0.4269065, -0.50163615, 0.6517595
342, 561528300, 0.37592953, 0.42688957, -0.5017207, 0.65170443
343, 561544967, 0.37598097, 0.4268857, -0.5017874, 0.65162593
344, 561561634, 0.3760644, 0.42690885, -0.5018692, 0.6514996
345, 561578301, 0.37620908, 0.42692596, -0.5019455, 0.6513462
346, 561594968, 0.37632635, 0.42694333, -0.50197786, 0.65124214
347, 561611635, 0.3764527, 0.42695785, -0.50202525, 0.65112305
348, 561628302, 0.3765328, 0.42693603, -0.5020927, 0.65103894
349, 561644969, 0.37658238, 0.42696387, -0.5020691, 0.65101016
350, 561661636, 0.376651, 0.4269704, -0.5021235, 0.65092427
351, 561678303, 0.37665617, 0.42701292, -0.5021754, 0.6508533
352, 561694970, 0.37661818, 0.42707726, -0.5022018, 0.6508126
353, 561711637, 0.37658045, 0.42717147, -0.50219995, 0.65077406
354, 561728304, 0.37654626, 0.42730767, -0.50217235, 0.65072584
355, 561744971, 0.37657905, 0.42746174, -0.50210994, 0.65065396
356, 561761638, 0.3766136, 0.42763916, -0.5020451, 0.65056723
357, 561778305, 0.37667933, 0.42775577, -0.5020028, 0.6504852
358, 561794972, 0.376769, 0.42786235, -0.5019431, 0.6504093
359, 561811639, 0.37686867, 0.42793107, -0.5018999, 0.65033966
360, 561828306, 0.3769782, 0.42800283, -0.5018513, 0.6502663
361, 561844973, 0.37710384, 0.4280553, -0.5018085, 0.65019184
362, 561861640, 0.3771939, 0.42815158, -0.50174445, 0.6501257
363, 561878307, 0.377251, 0.42826942, -0.5016828, 0.6500626
364, 561894974, 0.3772608, 0.42841333, -0.50162506, 0.65000665
365, 561911641, 0.37723997, 0.4285808, -0.50158477, 0.6499395
366, 561928308, 0.37721664, 0.42874134, -0.5015431, 0.6498793
367, 561944975, 0.3772316, 0.42890102, -0.5014556, 0.6498327
368, 561961642, 0.37724617, 0.42903778, -0.5013566, 0.64981043
369, 561978309, 0.37726873, 0.4291618, -0.5012552, 0.6497936
370, 561994976, 0.37726188, 0.42929086, -0.5011716, 0.64977676
371, 562011643, 0.37719068, 0.42946765, -0.5010686, 0.6497807
372, 562028310, 0.3771214, 0.42964056, -0.5009516, 0.64979696
373, 562044977, 0.37704727, 0.42980716, -0.5008248, 0.6498276
374, 562061644, 0.37697247, 0.42995384, -0.5007239, 0.64985156
375, 562078311, 0.37687087, 0.4301254, -0.50059706, 0.64989483
376, 562094978, 0.3767409, 0.43029097, -0.50049853, 0.6499364
377, 562111645, 0.37659717, 0.43044013, -0.50039387, 0.65000147
378, 562128312, 0.37649152, 0.4305738, -0.50028795, 0.6500557
379, 562144979, 0.37642533, 0.43065068, -0.50019777, 0.6501125
380, 562161646, 0.37633416, 0.43070528, -0.5001352, 0.65017724
381, 562178313, 0.37623087, 0.43082467, -0.5000445, 0.6502276
382, 562194980, 0.37613863, 0.4308671, -0.50001204, 0.65027785
383, 562211647, 0.37612405, 0.43083036, -0.49989438, 0.65040106
384, 562228314, 0.37614748, 0.43082377, -0.49970663, 0.6505362
385, 562244981, 0.3761514, 0.43077114, -0.49963826, 0.65062124
386, 562261648, 0.37609708, 0.43074134, -0.4995843, 0.6507138
387, 562278315, 0.3760194, 0.43070683, -0.49954364, 0.6508128
388, 562294982, 0.3758971, 0.4306847, -0.49953887, 0.6509018
389, 562311649, 0.3758019, 0.43070096, -0.4995165, 0.6509632
390, 562328316, 0.37570825, 0.43073538, -0.4994545, 0.65104204
391, 562344983, 0.37560248, 0.43076497, -0.49940437, 0.6511218
392, 562361650, 0.37549984, 0.430764, -0.4993568, 0.6512181
393, 562378317, 0.37541935, 0.43073207, -0.4993192, 0.65131444
394, 562394984, 0.3753763, 0.43070012, -0.49927023, 0.65139794
395, 562411651, 0.3753341, 0.43067598, -0.499223, 0.6514745
396, 562428318, 0.37529618, 0.43066663, -0.4992002, 0.65151995
397, 562444985, 0.37522858, 0.43067506, -0.49918017, 0.6515688
398, 562461652, 0.37515476, 0.43070003, -0.4991426, 0.65162337
399, 562478319, 0.3751067, 0.4307019, -0.49913436, 0.6516561
400, 562494986, 0.37500992, 0.4307172, -0.49914396, 0.6516944
401, 562511653, 0.37490553, 0.4307171, -0.4991261, 0.65176827
402, 562528320, 0.37479755, 0.43068162, -0.49913886, 0.651844
403, 562544987, 0.37472057, 0.43066776, -0.4991527, 0.6518868
404, 562561654, 0.37464672, 0.43065372, -0.4991956, 0.6519058
405, 562578321, 0.37458166, 0.43063453, -0.49924585, 0.65191734
406, 562594988, 0.37450427, 0.43063548, -0.49929002, 0.6519273
407, 562611655, 0.37442765, 0.4306511, -0.49931806, 0.6519395
408, 562628322, 0.37433547, 0.43066007, -0.49936888, 0.6519476
409, 562644989, 0.37426224, 0.43063906, -0.49943647, 0.6519518
410, 562661656, 0.3741955, 0.43057808, -0.4995206, 0.6519658
411, 562678323, 0.37412694, 0.43053, -0.49960965, 0.65196866
412, 562694990, 0.37405124, 0.43049747, -0.49970326, 0.65196186
413, 562711657, 0.37397227, 0.43045387, -0.4998189, 0.6519473
414, 562728324, 0.37392324, 0.4303885, -0.49995795, 0.651912
415, 562744991, 0.3739139, 0.43030307, -0.5000953, 0.65186834
416, 562761658, 0.37390944, 0.43017355, -0.5002424, 0.6518436
417, 562778325, 0.3739356, 0.42999476, -0.5004127, 0.6518158
418, 562794992, 0.37397158, 0.42979097, -0.5005834, 0.6517985
419, 562811659, 0.37401327, 0.42957926, -0.5007591, 0.6517792
420, 562828326, 0.37408218, 0.42934585, -0.5009233, 0.6517673
421, 562844993, 0.37412912, 0.42914128, -0.50108576, 0.6517503
422, 562861660, 0.37414253, 0.42897186, -0.50123775, 0.6517371
423, 562878327, 0.37413463, 0.42881474, -0.5013782, 0.6517371
424, 562894994, 0.37406158, 0.42868528, -0.5015079, 0.65176445
425, 562911661, 0.37395805, 0.42857602, -0.501621, 0.65180856
426, 562928328, 0.37381488, 0.42849642, -0.5017401, 0.6518514
427, 562944995, 0.37364894, 0.4284498, -0.5018207, 0.651915
428, 562961662, 0.37352118, 0.4283695, -0.5018961, 0.651983
429, 562978329, 0.3734036, 0.4282935, -0.50193465, 0.6520706
430, 562994996, 0.37328577, 0.42819923, -0.5019598, 0.65218073
431, 563011663, 0.37319115, 0.42815453, -0.5019299, 0.6522871
432, 563028330, 0.37312293, 0.4281417, -0.50190115, 0.6523567
433, 563044997, 0.37314492, 0.42803767, -0.50183904, 0.6524601
434, 563061664, 0.37324807, 0.42791766, -0.501684, 0.65259904
435, 563078331, 0.37338144, 0.42776236, -0.5015527, 0.6527256
436, 563094998, 0.3734101, 0.42766216, -0.5014691, 0.6528392
437, 563111665, 0.37337795, 0.42761284, -0.5013749, 0.65296215
438, 563128332, 0.37331682, 0.42760006, -0.5012976, 0.65306467
439, 563144999, 0.37327984, 0.4276389, -0.50117874, 0.6531517
440, 563161666, 0.37322792, 0.42771718, -0.50105417, 0.65322566
441, 563178333, 0.37317267, 0.42782587, -0.50094724, 0.6532681
442, 563195000, 0.37310758, 0.42794922, -0.5008547, 0.65329546
443, 563211667, 0.3730766, 0.42805812, -0.50077397, 0.65330356
444, 563228334, 0.3730996, 0.42816988, -0.50068164, 0.653288
445, 563245001, 0.37319076, 0.42823565, -0.5006332, 0.6532301
446, 563261668, 0.37331852, 0.42831084, -0.5005508, 0.6531707
447, 563278335, 0.37346983, 0.42841157, -0.5004616, 0.65308654
448, 563295002, 0.37358984, 0.42846465, -0.50040656, 0.6530252
449, 563311669, 0.37371752, 0.42857423, -0.5002532, 0.6529979
450, 563328336, 0.37384093, 0.4286527, -0.50019443, 0.6529208
451, 563345003, 0.37392995, 0.4287571, -0.5000812, 0.65288794
452, 563361670, 0.37397483, 0.42888686, -0.49997368, 0.65285933
453, 563378337, 0.3740099, 0.4290326, -0.49988592, 0.6528108
454, 563395004, 0.37405768, 0.42924446, -0.49974042, 0.65275556
455, 563411671, 0.37416017, 0.4294289, -0.49962488, 0.6526638
456, 563428338, 0.3742741, 0.429619, -0.4994945, 0.6525732
457, 563445005, 0.3744366, 0.42976865, -0.4994071, 0.65244836
458, 563461672, 0.37459406, 0.42987487, -0.49934828, 0.652333
459, 563478339, 0.37476555, 0.42996657, -0.49929488, 0.652215
460, 563495006, 0.37497085, 0.4300106, -0.49924707, 0.65210456
461, 563511673, 0.37517428, 0.4300164, -0.49920064, 0.65201926
462, 563528340, 0.3753611, 0.43001518, -0.4991624, 0.65194184
463, 563545007, 0.37552944, 0.43003035, -0.49911407, 0.65187174
464, 563561674, 0.3756693, 0.4300714, -0.4990661, 0.6518007
465, 563578341, 0.3758012, 0.43010685, -0.49901715, 0.6517388
466, 563595008, 0.37593848, 0.4301309, -0.49896273, 0.6516854
467, 563611675, 0.37607148, 0.43013713, -0.4989137, 0.6516422
468, 563628342, 0.37620872, 0.43012264, -0.49886537, 0.65160954
469, 563645009, 0.37634268, 0.43012238, -0.49879387, 0.6515871
470, 563661676, 0.37643647, 0.43014175, -0.49874777, 0.6515553
471, 563678343, 0.3765266, 0.4301966, -0.49868968, 0.6515115
472, 563695010, 0.37662157, 0.43024844, -0.4986253, 0.6514716
473, 563711677, 0.3767211, 0.43029842, -0.498568, 0.65142494
474, 563728344, 0.37680003, 0.4303136, -0.4985323, 0.65139663
475, 563745011, 0.3768799, 0.43033078, -0.4984963, 0.65136653
476, 563761678, 0.37695402, 0.4303381, -0.4984657, 0.6513423
477, 563778345, 0.37700638, 0.43036926, -0.49846393, 0.65129274
478, 563795012, 0.37702617, 0.4304205, -0.49846077, 0.6512498
479, 563811679, 0.37704876, 0.43046784, -0.49844494, 0.6512176
480, 563828346, 0.37712777, 0.43048155, -0.49842143, 0.6511808
481, 563845013, 0.37717554, 0.43046826, -0.49839497, 0.6511822
482, 563861680, 0.37719497, 0.43046546, -0.49838856, 0.6511776
483, 563878347, 0.3772079, 0.43049744, -0.49841598, 0.651128
484, 563895014, 0.37724364, 0.43048677, -0.49842995, 0.65110373
485, 563911681, 0.3773386, 0.43044013, -0.4984127, 0.65109277
486, 563928348, 0.37747037, 0.4304494, -0.49830857, 0.65108997
487, 563945015, 0.3775198, 0.43046963, -0.4983579, 0.65101016
488, 563961682, 0.37747493, 0.43052283, -0.4984256, 0.6509492
489, 563978349, 0.37740526, 0.43056577, -0.49846503, 0.650931
490, 563995016, 0.37737155, 0.4305768, -0.4985185, 0.6509023
491, 564011683, 0.37736538, 0.4306141, -0.49850976, 0.65088785
492, 564028350, 0.3773535, 0.43063557, -0.49852124, 0.65087175
493, 564045017, 0.3773324, 0.43063277, -0.49856266, 0.6508542
494, 564061684, 0.3773439, 0.43062645, -0.49859297, 0.6508284
495, 564078351, 0.37739062, 0.43061635, -0.49864826, 0.6507657
496, 564095018, 0.37743828, 0.4306443, -0.4986836, 0.6506925
497, 564111685, 0.37747568, 0.43068084, -0.4986977, 0.6506356
498, 564128352, 0.3775084, 0.4307333, -0.49869683, 0.6505827
499, 564145019, 0.37749547, 0.43073216, -0.49873316, 0.650563
500, 564161686, 0.37746686, 0.43080136, -0.4986715, 0.65058106
501, 564178353, 0.37745124, 0.43082204, -0.4987237, 0.65053654
502, 564195020, 0.37742603, 0.43085065, -0.49874172, 0.65051836
503, 564211687, 0.37737197, 0.43087876, -0.4987569, 0.6505195
504, 564228354, 0.37731206, 0.43088794, -0.49879357, 0.6505201
505, 564245021, 0.37726897, 0.43093732, -0.4987955, 0.6505108
506, 564261688, 0.37724203, 0.43101022, -0.49880198, 0.6504732
507, 564278355, 0.37719092, 0.43111655, -0.4987957, 0.6504371
508, 564295022, 0.37711185, 0.43125042, -0.4987745, 0.65041053
509, 564311689, 0.37704188, 0.43137494, -0.49878475, 0.6503607
510, 564328356, 0.3769764, 0.4314951, -0.49875978, 0.6503381
511, 564345023, 0.37692383, 0.4315913, -0.49875775, 0.65030617
512, 564361690, 0.376856, 0.4317123, -0.49874863, 0.6502722
513, 564378357, 0.3767278, 0.43187723, -0.49873966, 0.6502439
514, 564395024, 0.37658045, 0.43205497, -0.49873686, 0.6502133
515, 564411691, 0.37645474, 0.4322357, -0.4987129, 0.6501844
516, 564428358, 0.37634674, 0.43239462, -0.49867988, 0.65016663
517, 564445025, 0.3762363, 0.43252656, -0.49866283, 0.6501559
518, 564461692, 0.37612948, 0.43263012, -0.49863023, 0.6501736
519, 564478359, 0.37603402, 0.43270934, -0.49860305, 0.65019697
520, 564495026, 0.37593836, 0.43277812, -0.49856582, 0.6502351
521, 564511693, 0.37587348, 0.43281138, -0.49853066, 0.65027744
522, 564528360, 0.37581027, 0.43286616, -0.49849415, 0.65030557
523, 564545027, 0.375717, 0.43292406, -0.49847487, 0.6503357
524, 564561694, 0.37558985, 0.4329979, -0.49845156, 0.65037787
525, 564578361, 0.3754597, 0.4330856, -0.4984134, 0.6504239
526, 564595028, 0.37534565, 0.4331506, -0.4983838, 0.650469
527, 564611695, 0.37524566, 0.4331936, -0.4983707, 0.65050805
528, 564628362, 0.37516302, 0.43321532, -0.49834543, 0.6505606
529, 564645029, 0.37508982, 0.4332082, -0.49834275, 0.6506096
530, 564661696, 0.3750142, 0.43320432, -0.49833682, 0.65066034
531, 564678363, 0.37496674, 0.43318352, -0.4983524, 0.6506896
532, 564695030, 0.37493968, 0.43313575, -0.49837336, 0.650721
533, 564711697, 0.37486356, 0.43308648, -0.49841464, 0.65076596
534, 564728364, 0.37478387, 0.43308833, -0.4984497, 0.6507838
535, 564745031, 0.3747055, 0.43306348, -0.49851117, 0.6507984
536, 564761698, 0.3747507, 0.43297017, -0.49850175, 0.6508417
537, 564778365, 0.37479922, 0.4329032, -0.49845207, 0.6508963
538, 564795032, 0.37481767, 0.43282184, -0.49849367, 0.65090793
539, 564811699, 0.3747385, 0.43279192, -0.4985565, 0.6509252
540, 564828366, 0.37463358, 0.43275386, -0.49862385, 0.6509594
541, 564845033, 0.37456822, 0.43270946, -0.49867797, 0.65098506
542, 564861700, 0.3745242, 0.4326712, -0.49869442, 0.6510232
543, 564878367, 0.3744889, 0.43262213, -0.49870405, 0.65106875
544, 564895034, 0.37444958, 0.43255693, -0.49873605, 0.6511102
545, 564911701, 0.37443453, 0.43251124, -0.49875978, 0.651131
546, 564928368, 0.3744133, 0.4324739, -0.4987971, 0.65113944
547, 564945035, 0.37441406, 0.43243343, -0.49882177, 0.6511469
548, 564961702, 0.37445316, 0.43238086, -0.49882162, 0.65115947
549, 564978369, 0.37450653, 0.43230474, -0.49882394, 0.6511776
550, 564995036, 0.374512, 0.43224895, -0.49881297, 0.65121984
551, 565011703, 0.3744913, 0.43222257, -0.49877453, 0.6512787
552, 565028370, 0.37450704, 0.43218252, -0.49873286, 0.6513281
553, 565045037, 0.3744761, 0.43216956, -0.49869952, 0.65138
554, 565061704, 0.37442705, 0.4321666, -0.49866518, 0.6514365
555, 565078371, 0.37434754, 0.43218127, -0.4986477, 0.6514859
556, 565095038, 0.37430125, 0.43219054, -0.49861857, 0.65152854
557, 565111705, 0.37427694, 0.43219003, -0.49858472, 0.6515688
558, 565128372, 0.374288, 0.4321676, -0.4985552, 0.6515999
559, 565145039, 0.37430865, 0.4320929, -0.49854574, 0.6516448
560, 565161706, 0.37435466, 0.4319943, -0.49853018, 0.65169567
561, 565178373, 0.37442526, 0.43187603, -0.4985314, 0.6517326
562, 565195040, 0.3744834, 0.43175885, -0.49851158, 0.6517919
563, 565211707, 0.3745393, 0.4316365, -0.49848798, 0.65185887
564, 565228374, 0.3745733, 0.4315489, -0.4984444, 0.6519308
565, 565245041, 0.37458512, 0.43147594, -0.49840102, 0.65200543
566, 565261708, 0.3745933, 0.4313853, -0.49839208, 0.6520676
567, 565278375, 0.37459585, 0.43131208, -0.49838462, 0.65212023
568, 565295042, 0.37458912, 0.43125057, -0.4983832, 0.6521658
569, 565311709, 0.3745848, 0.43121123, -0.49834338, 0.65222466
570, 565328376, 0.37459758, 0.43116316, -0.498315, 0.65227085
571, 565345043, 0.3746242, 0.43107438, -0.49830934, 0.6523186
572, 565361710, 0.3746563, 0.43099773, -0.49830496, 0.6523541
573, 565378377, 0.37469065, 0.43092743, -0.49831244, 0.6523751
574, 565395044, 0.37470374, 0.43088132, -0.49832064, 0.65239185
575, 565411711, 0.3747009, 0.43081665, -0.49834183, 0.6524199
576, 565428378, 0.37470508, 0.43077287, -0.4983503, 0.65243995
577, 565445045, 0.37469643, 0.430735, -0.49837655, 0.65244985
578, 565461712, 0.37466484, 0.4307148, -0.49842346, 0.6524455
579, 565478379, 0.3746148, 0.43067998, -0.4984688, 0.6524626
580, 565495046, 0.37458467, 0.43063986, -0.4985062, 0.65247774
581, 565511713, 0.3745584, 0.4305925, -0.4985501, 0.65249056
582, 565528380, 0.37453875, 0.43053594, -0.49863702, 0.65247273
583, 565545047, 0.37451455, 0.43051407, -0.49869505, 0.6524567
584, 565561714, 0.3745289, 0.43042824, -0.49876654, 0.65245044
585, 565578381, 0.37452975, 0.43030626, -0.49884117, 0.65247333
586, 565595048, 0.37451202, 0.4302493, -0.49889818, 0.6524776
587, 565611715, 0.37448168, 0.43022215, -0.4990002, 0.6524348
588, 565628382, 0.37452736, 0.43010503, -0.49904004, 0.6524554
589, 565645049, 0.3745894, 0.43004006, -0.49899283, 0.65249866
590, 565661716, 0.37460724, 0.42993653, -0.49904317, 0.65251815
591, 565678383, 0.37452084, 0.42987472, -0.49910733, 0.6525594
592, 565695050, 0.3743869, 0.4298175, -0.49919754, 0.6526049
593, 565711717, 0.3742674, 0.42978877, -0.49929157, 0.6526204
594, 565728384, 0.37417236, 0.4297731, -0.4993585, 0.65263414
595, 565745051, 0.3740897, 0.42976165, -0.4994047, 0.6526537
596, 565761718, 0.37402284, 0.4297333, -0.49945942, 0.65266883
597, 565778385, 0.37395692, 0.42969912, -0.49950945, 0.6526909
598, 565795052, 0.37392253, 0.429656, -0.4995736, 0.6526899
599, 565811719, 0.37390226, 0.42963383, -0.4996179, 0.6526822
600, 565828386, 0.373875, 0.4296131, -0.49966398, 0.652676
601, 565845053, 0.37385958, 0.4296, -0.49970034, 0.6526656
602, 565861720, 0.3737981, 0.4295983, -0.4997224, 0.6526851
603, 565878387, 0.3737614, 0.42954603, -0.49971905, 0.6527431
604, 565895054, 0.37376863, 0.42951867, -0.4996443, 0.6528142
605, 565911721, 0.3737512, 0.4294566, -0.49965927, 0.65285367
606, 565928388, 0.37372926, 0.4293904, -0.49964193, 0.652923
607, 565945055, 0.3736822, 0.42931935, -0.49961257, 0.6530191
608, 565961722, 0.37367752, 0.42922023, -0.4996136, 0.65308607
609, 565978389, 0.37374568, 0.42909995, -0.4995866, 0.65314674
610, 565995056, 0.37384978, 0.42898098, -0.4995435, 0.65319836
611, 566011723, 0.37394175, 0.4288771, -0.4995112, 0.6532386
612, 566028390, 0.37404135, 0.4288235, -0.49943846, 0.65327245
613, 566045057, 0.37413257, 0.4287893, -0.4993561, 0.6533055
614, 566061724, 0.3742435, 0.42872876, -0.4992715, 0.6533464
615, 566078391, 0.37437728, 0.4286706, -0.49915168, 0.6533995
616, 566095058, 0.37448487, 0.42864218, -0.49904007, 0.6534418
617, 566111725, 0.37457216, 0.42864898, -0.4989294, 0.65347177
618, 566128392, 0.3746446, 0.42866638, -0.4988247, 0.6534987
619, 566145059, 0.37474117, 0.42865878, -0.49871838, 0.6535294
620, 566161726, 0.3748751, 0.42865795, -0.4986036, 0.65354085
621, 566178393, 0.37503782, 0.42864195, -0.49849722, 0.6535391
622, 566195060, 0.37519473, 0.42863637, -0.4984154, 0.6535151
623, 566211727, 0.37533528, 0.42867252, -0.49833164, 0.6534745
624, 566228394, 0.37548727, 0.42868274, -0.49828622, 0.6534151
625, 566245061, 0.375657, 0.42867285, -0.49823034, 0.65336674
626, 566261728, 0.3758588, 0.4286601, -0.49815437, 0.65331703
627, 566278395, 0.37604707, 0.42865783, -0.49806693, 0.6532767
628, 566295062, 0.37620306, 0.4286742, -0.49798083, 0.6532418
629, 566311729, 0.37631088, 0.42874005, -0.49787125, 0.65322006
630, 566328396, 0.37639403, 0.42884076, -0.4977827, 0.6531735
631, 566345063, 0.3764496, 0.42896882, -0.4977085, 0.65311396
632, 566361730, 0.37650582, 0.42909938, -0.49760512, 0.65307456
633, 566378397, 0.3766238, 0.42921424, -0.49747306, 0.65303165
634, 566395064, 0.37671953, 0.42929387, -0.49736652, 0.6530052
