PacketCounter,SampleTimeFine,Quat_W,Quat_X,Quat_Y,Quat_Z
1, 555785626, 0.37806448, 0.6027934, -0.3009654, 0.63492304
2, 555802293, 0.37812686, 0.60277706, -0.30064407, 0.63505363
3, 555818960, 0.3784701, 0.60258627, -0.30034018, 0.6351741
4, 555835627, 0.37866518, 0.6026152, -0.29998013, 0.6352005
5, 555852294, 0.3788743, 0.60269946, -0.2996837, 0.63513577
6, 555868961, 0.37905535, 0.6028399, -0.2993182, 0.6350667
7, 555885628, 0.37920952, 0.60297006, -0.29903778, 0.63498324
8, 555902295, 0.37934524, 0.6030356, -0.29878855, 0.63495725
9, 555918962, 0.37946254, 0.6031171, -0.29861793, 0.6348901
10, 555935629, 0.3796496, 0.6031101, -0.29846933, 0.6348547
11, 555952296, 0.37993246, 0.6030523, -0.29827797, 0.63483036
12, 555968963, 0.38022742, 0.602977, -0.29804614, 0.6348343
13, 555985630, 0.3805093, 0.6029248, -0.29779905, 0.6348308
14, 556002297, 0.3807619, 0.60291797, -0.29754633, 0.6348045
15, 556018964, 0.38098153, 0.6028982, -0.29720968, 0.6348491
16, 556035631, 0.38118616, 0.6028638, -0.29683483, 0.6349344
17, 556052298, 0.38135043, 0.6029487, -0.29642922, 0.63494456
18, 556068965, 0.38150418, 0.603048, -0.29601672, 0.63495016
19, 556085632, 0.38156503, 0.60318047, -0.29569322, 0.6349384
20, 556102299, 0.3815609, 0.60330665, -0.29548845, 0.63491654
21, 556118966, 0.3815509, 0.60349363, -0.2952693, 0.63484687
22, 556135633, 0.38146845, 0.6037129, -0.29496506, 0.6348294
23, 556152300, 0.38134992, 0.60395956, -0.29471928, 0.63478017
24, 556168967, 0.38118222, 0.60419583, -0.29451874, 0.63474894
25, 556185634, 0.38103336, 0.6044087, -0.2943691, 0.634705
26, 556202301, 0.38091058, 0.60459733, -0.29422626, 0.6346654
27, 556218968, 0.38083962, 0.6047906, -0.29418877, 0.6345412
28, 556235635, 0.38073012, 0.60496396, -0.29409167, 0.63448673
29, 556252302, 0.3805893, 0.6052199, -0.29408434, 0.6343304
30, 556268969, 0.38037664, 0.60538405, -0.29403004, 0.63432664
31, 556285636, 0.38011795, 0.60555387, -0.29413277, 0.6342719
32, 556302303, 0.3798259, 0.60567385, -0.29413265, 0.6343323
33, 556318970, 0.37957904, 0.6057778, -0.29422504, 0.634338
34, 556335637, 0.37937292, 0.60578936, -0.29426998, 0.6344294
35, 556352304, 0.37918812, 0.6058248, -0.29433277, 0.63447696
36, 556368971, 0.37905914, 0.6057807, -0.29443145, 0.63455045
37, 556385638, 0.3789585, 0.605779, -0.29451862, 0.6345717
38, 556402305, 0.37891454, 0.60576254, -0.29461297, 0.6345698
39, 556418972, 0.37892288, 0.6057209, -0.29476684, 0.63453305
40, 556435639, 0.37898117, 0.60564166, -0.2948904, 0.6345164
41, 556452306, 0.37902692, 0.60562193, -0.2950224, 0.6344467
42, 556468973, 0.3790553, 0.60561544, -0.29507184, 0.6344129
43, 556485640, 0.37909287, 0.60559857, -0.29514092, 0.63437426
44, 556502307, 0.37905437, 0.6056152, -0.2951881, 0.6343596
45, 556518974, 0.3789813, 0.6056678, -0.29527196, 0.63431406
46, 556535641, 0.3788966, 0.6057445, -0.29539514, 0.6342341
47, 556552308, 0.37881294, 0.6058248, -0.2955769, 0.63412255
48, 556568975, 0.37876356, 0.60590047, -0.295778, 0.6339861
49, 556585642, 0.37868813, 0.6059875, -0.29590842, 0.6338869
50, 556602309, 0.3786658, 0.6061008, -0.2960217, 0.6337392
51, 556618976, 0.3786996, 0.606208, -0.29610524, 0.6335773
52, 556635643, 0.37871084, 0.6062718, -0.29621786, 0.63345695
53, 556652310, 0.37864918, 0.6063652, -0.29635054, 0.63334227
54, 556668977, 0.37858117, 0.60642016, -0.29641086, 0.63330203
55, 556685644, 0.3784946, 0.606454, -0.29649854, 0.6332804
56, 556702311, 0.3784599, 0.60644144, -0.296618, 0.6332572
57, 556718978, 0.37849763, 0.6063958, -0.29676947, 0.6332074
58, 556735645, 0.37852138, 0.6063442, -0.29691902, 0.6331724
59, 556752312, 0.3785588, 0.6063291, -0.2970543, 0.63310117
60, 556768979, 0.37853044, 0.6063062, -0.2972066, 0.6330686
61, 556785646, 0.37848374, 0.60627365, -0.29745683, 0.63301027
62, 556802313, 0.3785051, 0.6061906, -0.29766425, 0.63297933
63, 556818980, 0.3785717, 0.6061289, -0.29791826, 0.6328792
64, 556835647, 0.37862867, 0.6060817, -0.2981501, 0.63278115
65, 556852314, 0.37864786, 0.60605776, -0.29836076, 0.6326932
66, 556868981, 0.37859932, 0.60610735, -0.298612, 0.6325562
67, 556885648, 0.37854442, 0.60613847, -0.29885852, 0.63244283
68, 556902315, 0.3785178, 0.6061045, -0.29911104, 0.63237196
69, 556918982, 0.3785061, 0.60611117, -0.299385, 0.6322428
70, 556935649, 0.37846577, 0.60610366, -0.29960987, 0.63216764
71, 556952316, 0.37843242, 0.6061527, -0.29984644, 0.63202846
72, 556968983, 0.37840226, 0.60621405, -0.30014148, 0.63184756
73, 556985650, 0.3783714, 0.6062844, -0.3004188, 0.6316668
74, 557002317, 0.3783142, 0.60637295, -0.30068105, 0.6314911
75, 557018984, 0.37825394, 0.60634965, -0.30103123, 0.6313829
76, 557035651, 0.37817553, 0.60626334, -0.30138865, 0.63134223
77, 557052318, 0.37807626, 0.6061633, -0.30177793, 0.6313117
78, 557068985, 0.37796575, 0.606038, -0.30225474, 0.63127023
79, 557085652, 0.37791547, 0.6058723, -0.3028666, 0.6311661
80, 557102319, 0.3779378, 0.60561746, -0.3033878, 0.6311469
81, 557118986, 0.37796882, 0.60533804, -0.30395365, 0.6311242
82, 557135653, 0.37806842, 0.60497993, -0.30451417, 0.63113785
83, 557152320, 0.37824157, 0.6045775, -0.30500668, 0.6311818
84, 557168987, 0.3784684, 0.60427755, -0.30539197, 0.6311467
85, 557185654, 0.37878343, 0.6039791, -0.3057145, 0.63108724
86, 557202321, 0.37908491, 0.6037081, -0.30604327, 0.6310062
87, 557218988, 0.37946424, 0.60335433, -0.30637643, 0.6309549
88, 557235655, 0.37991098, 0.60289985, -0.3066725, 0.63097656
89, 557252322, 0.38030148, 0.60256994, -0.3070067, 0.63089395
90, 557268989, 0.38067427, 0.6023254, -0.30726844, 0.63077533
91, 557285656, 0.38099593, 0.60220265, -0.30750877, 0.6305812
92, 557302323, 0.38126883, 0.6019872, -0.30774114, 0.63050854
93, 557318990, 0.38150516, 0.6017119, -0.30796003, 0.6305214
94, 557335657, 0.38166156, 0.60151196, -0.30816028, 0.63051975
95, 557352324, 0.38179982, 0.6013105, -0.30829555, 0.63056225
96, 557368991, 0.38185358, 0.60122716, -0.3083947, 0.6305604
97, 557385658, 0.38190457, 0.6011159, -0.3084626, 0.63060254
98, 557402325, 0.38198534, 0.60086185, -0.30859476, 0.6307309
99, 557418992, 0.38205075, 0.6005094, -0.30874482, 0.6309536
100, 557435659, 0.3819836, 0.6003599, -0.30890203, 0.63105965
101, 557452326, 0.38183334, 0.6003188, -0.30910605, 0.63108975
102, 557468993, 0.38168597, 0.6002649, -0.3093411, 0.6311149
103, 557485660, 0.38165498, 0.60008454, -0.30955827, 0.6311987
104, 557502327, 0.38170168, 0.5998679, -0.30984968, 0.6312334
105, 557518994, 0.3817953, 0.59971493, -0.31016412, 0.6311677
106, 557535661, 0.38188502, 0.5995725, -0.310455, 0.63110566
107, 557552328, 0.38192236, 0.5995209, -0.3106671, 0.6310277
108, 557568995, 0.3818505, 0.5995986, -0.3108747, 0.63089514
109, 557585662, 0.38172752, 0.5997142, -0.3110009, 0.63079745
110, 557602329, 0.38159162, 0.59986067, -0.31112012, 0.63068175
111, 557618996, 0.38148752, 0.5999781, -0.31124294, 0.6305724
112, 557635663, 0.3814213, 0.6000722, -0.31133962, 0.63047516
113, 557652330, 0.3813684, 0.6001481, -0.31146213, 0.63037443
114, 557668997, 0.3813288, 0.600271, -0.3116185, 0.6302041
115, 557685664, 0.38128042, 0.600467, -0.311745, 0.6299838
116, 557702331, 0.38125205, 0.6006226, -0.31180966, 0.62982076
117, 557718998, 0.38117898, 0.6007871, -0.311852, 0.62968713
118, 557735665, 0.38105544, 0.6010398, -0.31189576, 0.629499
119, 557752332, 0.38095155, 0.6012302, -0.3119197, 0.6293683
120, 557768999, 0.3807792, 0.6014768, -0.31196567, 0.629214
121, 557785666, 0.38058737, 0.6017092, -0.3119816, 0.62909997
122, 557802333, 0.3804282, 0.6018416, -0.31193668, 0.629092
123, 557819000, 0.38024366, 0.6019758, -0.31187165, 0.6291074
124, 557835667, 0.3801013, 0.60205704, -0.31176627, 0.6291677
125, 557852334, 0.3799534, 0.60209554, -0.31166852, 0.62926877
126, 557869001, 0.37975615, 0.6021577, -0.31163827, 0.6293433
127, 557885668, 0.37958983, 0.60220134, -0.31152552, 0.62945765
128, 557902335, 0.37952968, 0.60207415, -0.31137264, 0.6296912
129, 557919002, 0.37955245, 0.60191447, -0.31127056, 0.62988067
130, 557935669, 0.3796388, 0.6016899, -0.31113368, 0.63011074
131, 557952336, 0.37973708, 0.60152173, -0.31101847, 0.630269
132, 557969003, 0.3798439, 0.6013567, -0.31096998, 0.6303861
133, 557985670, 0.37991965, 0.60121083, -0.31092763, 0.6305004
134, 558002337, 0.37992868, 0.6011486, -0.31091043, 0.6305628
135, 558019004, 0.3799409, 0.6010141, -0.31086594, 0.6307056
136, 558035671, 0.37992483, 0.60095793, -0.31087524, 0.63076407
137, 558052338, 0.37990403, 0.60089123, -0.31088158, 0.630837
138, 558069005, 0.3798717, 0.6007981, -0.31088975, 0.6309412
139, 558085672, 0.3797874, 0.6007529, -0.3109768, 0.6309922
140, 558102339, 0.37972102, 0.60064816, -0.31104565, 0.6310978
141, 558119006, 0.3796146, 0.6006367, -0.31110314, 0.6311443
142, 558135673, 0.37949774, 0.600681, -0.3111033, 0.63117236
143, 558152340, 0.37937003, 0.6007653, -0.31110406, 0.63116854
144, 558169007, 0.37924254, 0.6007994, -0.31105706, 0.63123584
145, 558185674, 0.3790604, 0.60090685, -0.31106275, 0.63124025
146, 558202341, 0.37884694, 0.6010104, -0.31104597, 0.63127804
147, 558219008, 0.3786266, 0.60112846, -0.31101412, 0.63131356
148, 558235675, 0.3784409, 0.601203, -0.3109715, 0.6313749
149, 558252342, 0.378296, 0.601255, -0.31091246, 0.63144124
150, 558269009, 0.37816063, 0.6013412, -0.31083617, 0.63147783
151, 558285676, 0.37802166, 0.6014288, -0.3107945, 0.63149816
152, 558302343, 0.37786752, 0.6015009, -0.3108448, 0.6314969
153, 558319010, 0.37780267, 0.60147077, -0.31090105, 0.63153666
154, 558335677, 0.37774476, 0.601475, -0.310911, 0.63156235
155, 558352344, 0.37774962, 0.6014296, -0.31087196, 0.6316221
156, 558369011, 0.3777674, 0.6013913, -0.3108208, 0.6316729
157, 558385678, 0.3778106, 0.6013072, -0.31076625, 0.631754
158, 558402345, 0.37784743, 0.6011776, -0.3107231, 0.6318766
159, 558419012, 0.37781426, 0.60112274, -0.310726, 0.63194716
160, 558435679, 0.37778935, 0.6010488, -0.31066018, 0.6320647
161, 558452346, 0.37775287, 0.6010678, -0.3105934, 0.63210124
162, 558469013, 0.37773782, 0.60102564, -0.3105454, 0.6321739
163, 558485680, 0.3777263, 0.60097516, -0.31051433, 0.63224417
164, 558502347, 0.37767792, 0.60094553, -0.31053385, 0.63229156
165, 558519014, 0.3777003, 0.60087675, -0.31053525, 0.63234293
166, 558535681, 0.37775785, 0.6007753, -0.31049496, 0.6324246
167, 558552348, 0.3777827, 0.6007571, -0.31051344, 0.632418
168, 558569015, 0.37784576, 0.6006705, -0.31048408, 0.6324771
169, 558585682, 0.37789568, 0.6006358, -0.31044373, 0.6324999
170, 558602349, 0.3779145, 0.60061145, -0.31040817, 0.6325294
171, 558619016, 0.37791547, 0.6006217, -0.3104393, 0.63250375
172, 558635683, 0.37785393, 0.60066676, -0.31051487, 0.6324606
173, 558652350, 0.37774247, 0.6007655, -0.31058782, 0.63239753
174, 558669017, 0.37763864, 0.6008754, -0.31064597, 0.63232654
175, 558685684, 0.3775794, 0.60091066, -0.31068018, 0.63231176
176, 558702351, 0.37759516, 0.60088176, -0.31066972, 0.632335
177, 558719018, 0.37761483, 0.6008543, -0.31073746, 0.632316
178, 558735685, 0.37759867, 0.60078925, -0.31084058, 0.63233685
179, 558752352, 0.3775098, 0.60084385, -0.31092033, 0.6322987
180, 558769019, 0.3774465, 0.60085535, -0.3109372, 0.6323172
181, 558785686, 0.37739617, 0.6008865, -0.31095028, 0.6323113
182, 558802353, 0.37735793, 0.60090506, -0.31098276, 0.63230044
183, 558819020, 0.3773552, 0.60086244, -0.3110329, 0.6323179
184, 558835687, 0.37739906, 0.6007295, -0.3110912, 0.6323893
185, 558852354, 0.37738323, 0.60067886, -0.31120285, 0.6323919
186, 558869021, 0.3773513, 0.6005985, -0.3112112, 0.6324833
187, 558885688, 0.37729442, 0.6005617, -0.31123585, 0.6325401
188, 558902355, 0.37720752, 0.6005415, -0.31129056, 0.63258415
189, 558919022, 0.37713242, 0.6004932, -0.31131762, 0.6326614
190, 558935689, 0.37705407, 0.600493, -0.3114, 0.6326677
191, 558952356, 0.37702122, 0.60048914, -0.3114586, 0.6326622
192, 558969023, 0.37700155, 0.6005309, -0.3115386, 0.63259476
193, 558985690, 0.3769681, 0.60054606, -0.31159434, 0.6325728
194, 559002357, 0.3769565, 0.60056585, -0.31162915, 0.632544
195, 559019024, 0.37695056, 0.60058445, -0.31170407, 0.63249296
196, 559035691, 0.37694997, 0.60058016, -0.3118208, 0.6324398
197, 559052358, 0.37693974, 0.6006333, -0.31196535, 0.6323241
198, 559069025, 0.3769436, 0.60068333, -0.31207561, 0.63221985
199, 559085692, 0.37690765, 0.6007975, -0.3122075, 0.63206774
200, 559102359, 0.37688756, 0.6008689, -0.31224537, 0.63199306
201, 559119026, 0.37680498, 0.60094506, -0.31223503, 0.63197494
202, 559135693, 0.3767245, 0.6010093, -0.31221378, 0.63197225
203, 559152360, 0.3765815, 0.60110766, -0.31219357, 0.6319741
204, 559169027, 0.37638593, 0.6012406, -0.31217724, 0.6319722
205, 559185694, 0.3762305, 0.6012755, -0.31212315, 0.63205826
206, 559202361, 0.37611172, 0.60133266, -0.3120468, 0.63211215
207, 559219028, 0.37606424, 0.6013125, -0.3119351, 0.63221484
208, 559235695, 0.3760403, 0.601294, -0.31198764, 0.63222086
209, 559252362, 0.37604007, 0.60122603, -0.31196517, 0.63229656
210, 559269029, 0.37601262, 0.6012412, -0.3119486, 0.63230664
211, 559285696, 0.37593386, 0.6013242, -0.3119549, 0.6322714
212, 559302363, 0.37587517, 0.6013877, -0.31194514, 0.63225067
213, 559319030, 0.3758357, 0.60144657, -0.3119499, 0.6322158
214, 559335697, 0.37576687, 0.60151744, -0.3119627, 0.632183
215, 559352364, 0.37569407, 0.6015963, -0.31197342, 0.63214606
216, 559369031, 0.3756273, 0.60169065, -0.3119747, 0.6320953
217, 559385698, 0.3755392, 0.60182333, -0.3119594, 0.6320288
218, 559402365, 0.37543216, 0.60201466, -0.31192878, 0.6319253
219, 559419032, 0.3753048, 0.60221255, -0.31193307, 0.63181025
220, 559435699, 0.37516758, 0.6024255, -0.31194928, 0.6316808
221, 559452366, 0.37505704, 0.60260934, -0.31200337, 0.6315443
222, 559469033, 0.3749439, 0.6028111, -0.31203216, 0.6314047
223, 559485700, 0.37482622, 0.60305595, -0.31203046, 0.6312416
224, 559502367, 0.3747147, 0.6032313, -0.31204504, 0.6311331
225, 559519034, 0.3746196, 0.60337305, -0.31208283, 0.63103527
226, 559535701, 0.37447995, 0.60356575, -0.31216967, 0.63089097
227, 559552368, 0.37434775, 0.60367864, -0.31224266, 0.6308253
228, 559569035, 0.3742004, 0.60386354, -0.31227612, 0.6307193
229, 559585702, 0.3741509, 0.60394555, -0.31222332, 0.6306962
230, 559602369, 0.37415454, 0.6040011, -0.3121658, 0.6306692
231, 559619036, 0.37413794, 0.6040698, -0.3121003, 0.6306457
232, 559635703, 0.3740547, 0.60420793, -0.31208932, 0.63056815
233, 559652370, 0.37393054, 0.6043717, -0.31209153, 0.6304838
234, 559669037, 0.37380257, 0.6044864, -0.3120768, 0.63045704
235, 559685704, 0.37369922, 0.60454905, -0.3120661, 0.63046354
236, 559702371, 0.3736622, 0.6045914, -0.31189802, 0.63052785
237, 559719038, 0.37362182, 0.60469335, -0.31171176, 0.63054615
238, 559735705, 0.37358373, 0.60474664, -0.31159785, 0.630574
239, 559752372, 0.37356365, 0.6047363, -0.3115096, 0.6306394
240, 559769039, 0.37353352, 0.6047766, -0.31149533, 0.63062567
241, 559785706, 0.37350777, 0.6048276, -0.31145766, 0.63061064
242, 559802373, 0.37349316, 0.60493106, -0.3114443, 0.6305267
243, 559819040, 0.37350994, 0.604984, -0.31143627, 0.6304698
244, 559835707, 0.37353343, 0.60503376, -0.3115012, 0.6303761
245, 559852374, 0.37358296, 0.6050312, -0.31151003, 0.63034487
246, 559869041, 0.3735685, 0.6050753, -0.31143567, 0.6303479
247, 559885708, 0.3735502, 0.6051636, -0.3113778, 0.6303025
248, 559902375, 0.37348688, 0.6052968, -0.31129318, 0.630254
249, 559919042, 0.3734504, 0.6054171, -0.31123424, 0.63018924
250, 559935709, 0.3734304, 0.60540766, -0.3111394, 0.63025683
251, 559952376, 0.3733662, 0.6055119, -0.31101096, 0.6302581
252, 559969043, 0.37332648, 0.60556453, -0.3109016, 0.63028497
253, 559985710, 0.37330607, 0.60556775, -0.3107046, 0.6303911
254, 560002377, 0.37330282, 0.6055918, -0.31052023, 0.6304609
255, 560019044, 0.37329644, 0.6056605, -0.31039444, 0.6304605
256, 560035711, 0.37327778, 0.6056848, -0.3103115, 0.630489
257, 560052378, 0.3732313, 0.6057303, -0.31027964, 0.6304886
258, 560069045, 0.37322393, 0.6057517, -0.31023732, 0.6304932
259, 560085712, 0.3732548, 0.60568476, -0.31015226, 0.630581
260, 560102379, 0.37326786, 0.605628, -0.31015077, 0.6306285
261, 560119046, 0.37324467, 0.6055702, -0.31016207, 0.6306921
262, 560135713, 0.37316957, 0.60561657, -0.31015402, 0.6306962
263, 560152380, 0.37305203, 0.6056924, -0.3101582, 0.63069075
264, 560169047, 0.37299576, 0.6057258, -0.31016335, 0.63068944
265, 560185714, 0.37297153, 0.6057214, -0.31021267, 0.6306838
266, 560202381, 0.37297618, 0.60565954, -0.31025273, 0.63072073
267, 560219048, 0.37298083, 0.60563827, -0.3103039, 0.63071316
268, 560235715, 0.37300473, 0.605671, -0.31035358, 0.63064325
269, 560252382, 0.37300926, 0.60571253, -0.31038398, 0.6305856
270, 560269049, 0.37298143, 0.6057579, -0.31042036, 0.63054067
271, 560285716, 0.37293553, 0.6058238, -0.310434, 0.6304978
272, 560302383, 0.37290928, 0.6059046, -0.3104527, 0.63042647
273, 560319050, 0.37291667, 0.6059454, -0.31044948, 0.6303843
274, 560335717, 0.37294227, 0.6059431, -0.3104177, 0.630387
275, 560352384, 0.37291095, 0.60598326, -0.3104175, 0.63036704
276, 560369051, 0.37284523, 0.6060557, -0.3103911, 0.6303494
277, 560385718, 0.37277427, 0.60611266, -0.31036326, 0.63035023
278, 560402385, 0.37271726, 0.6061527, -0.31030437, 0.6303745
279, 560419052, 0.3726911, 0.6061908, -0.31027818, 0.63036627
280, 560435719, 0.37269494, 0.6062474, -0.31020936, 0.63034344
281, 560452386, 0.37272793, 0.6062666, -0.31013027, 0.6303444
282, 560469053, 0.37273878, 0.6062868, -0.31010884, 0.630329
283, 560485720, 0.37272048, 0.606317, -0.3100594, 0.6303352
284, 560502387, 0.37267882, 0.6063742, -0.31000438, 0.63033193
285, 560519054, 0.37264875, 0.6063958, -0.30991635, 0.6303719
286, 560535721, 0.37257037, 0.6064399, -0.30982342, 0.63042164
287, 560552388, 0.37245157, 0.60653526, -0.30972597, 0.63044804
288, 560569055, 0.37235188, 0.6066079, -0.30969182, 0.63045377
289, 560585722, 0.3723237, 0.6065405, -0.30963606, 0.6305627
290, 560602389, 0.37229547, 0.6065171, -0.3096551, 0.63059264
291, 560619056, 0.37234452, 0.6064653, -0.30962336, 0.6306289
292, 560635723, 0.372413, 0.60649484, -0.30959868, 0.63057214
293, 560652390, 0.3724936, 0.60653114, -0.30954397, 0.6305166
294, 560669057, 0.37255907, 0.60655695, -0.30954933, 0.63045037
295, 560685724, 0.37261406, 0.60646325, -0.3095617, 0.6305019
296, 560702391, 0.37260556, 0.60646874, -0.3096235, 0.6304713
297, 560719058, 0.37256837, 0.6064687, -0.3096651, 0.63047284
298, 560735725, 0.37250847, 0.6065188, -0.30969512, 0.6304455
299, 560752392, 0.37243828, 0.6066184, -0.30971494, 0.63038146
300, 560769059, 0.3723763, 0.60669124, -0.30977097, 0.63032037
301, 560785726, 0.37230512, 0.6067412, -0.3098354, 0.6302827
302, 560802393, 0.37224707, 0.60674345, -0.30985844, 0.6303034
303, 560819060, 0.37220323, 0.6067305, -0.30988976, 0.63032633
304, 560835727, 0.37217999, 0.6067091, -0.3099451, 0.6303335
305, 560852394, 0.37216735, 0.6066584, -0.3099876, 0.6303688
306, 560869061, 0.3721285, 0.60663885, -0.31005168, 0.630379
307, 560885728, 0.37205052, 0.60667306, -0.31014252, 0.6303475
308, 560902395, 0.37202114, 0.60666245, -0.31025013, 0.6303221
309, 560919062, 0.37205428, 0.6065866, -0.31035405, 0.63032436
310, 560935729, 0.37210956, 0.6065049, -0.31039676, 0.6303493
311, 560952396, 0.3721576, 0.60648906, -0.31038895, 0.6303401
312, 560969063, 0.3721856, 0.6064749, -0.3103962, 0.6303335
313, 560985730, 0.37216526, 0.6065306, -0.31043088, 0.6302749
314, 561002397, 0.37214628, 0.606526, -0.3104368, 0.6302877
315, 561019064, 0.37211362, 0.60653883, -0.31048697, 0.6302699
316, 561035731, 0.37210232, 0.60652214, -0.31047457, 0.6302986
317, 561052398, 0.3720744, 0.6065186, -0.31043422, 0.63033825
318, 561069065, 0.37201312, 0.60651433, -0.31036827, 0.6304112
319, 561085732, 0.3719055, 0.6065249, -0.31035185, 0.6304726
320, 561102399, 0.37181744, 0.6063919, -0.31022164, 0.63071644
321, 561119066, 0.37173554, 0.6063039, -0.3100666, 0.6309255
322, 561135733, 0.37164214, 0.60622114, -0.3099525, 0.6311161
323, 561152400, 0.37153903, 0.6062314, -0.3098328, 0.63122576
324, 561169067, 0.3714551, 0.6061695, -0.3097107, 0.6313945
325, 561185734, 0.37140554, 0.60601354, -0.30961338, 0.6316211
326, 561202401, 0.3713736, 0.60584456, -0.3095763, 0.63182014
327, 561219068, 0.37141442, 0.60561997, -0.30950162, 0.6320479
328, 561235735, 0.37147862, 0.60545146, -0.3094543, 0.63219494
329, 561252402, 0.37156656, 0.60530084, -0.30940238, 0.63231283
330, 561269069, 0.3716578, 0.60518277, -0.3094406, 0.6323534
331, 561285736, 0.37178433, 0.60508096, -0.3095031, 0.632346
332, 561302403, 0.3719298, 0.60495126, -0.30958226, 0.6323456
333, 561319070, 0.37208343, 0.604843, -0.3096697, 0.63231605
334, 561335737, 0.3722173, 0.604784, -0.30972123, 0.6322684
335, 561352404, 0.37227833, 0.60481155, -0.30982533, 0.6321552
336, 561369071, 0.3723157, 0.6048423, -0.30988246, 0.63207567
337, 561385738, 0.37233, 0.60491323, -0.30993354, 0.6319743
338, 561402405, 0.37237817, 0.6049452, -0.310028, 0.6318692
339, 561419072, 0.37246764, 0.604898, -0.31008282, 0.63183475
340, 561435739, 0.37250742, 0.6049499, -0.31019178, 0.6317081
341, 561452406, 0.37251976, 0.60496783, -0.31025252, 0.6316537
342, 561469073, 0.3725103, 0.6050445, -0.3102937, 0.6315657
343, 561485740, 0.3725099, 0.60506797, -0.31033334, 0.63152397
344, 561502407, 0.37250477, 0.60506755, -0.31041783, 0.6314859
345, 561519074, 0.37247887, 0.6050907, -0.3104953, 0.6314407
346, 561535741, 0.37239185, 0.60514736, -0.3105133, 0.63142896
347, 561552408, 0.37227583, 0.6052764, -0.31051147, 0.6313746
348, 561569075, 0.3721404, 0.60542625, -0.31053862, 0.6312974
349, 561585742, 0.37210694, 0.6054699, -0.3105536, 0.63126796
350, 561602409, 0.37218294, 0.6053916, -0.3105662, 0.63129205
351, 561619076, 0.37230387, 0.605253, -0.31056884, 0.6313523
352, 561635743, 0.3724042, 0.6051401, -0.31056723, 0.6314022
353, 561652410, 0.37250465, 0.60505146, -0.31055212, 0.6314352
354, 561669077, 0.37259105, 0.60495925, -0.31052533, 0.6314858
355, 561685744, 0.3726686, 0.6048631, -0.3104896, 0.6315497
356, 561702411, 0.37273204, 0.6048482, -0.31045526, 0.6315434
357, 561719078, 0.3727936, 0.60484445, -0.31041908, 0.6315284
358, 561735745, 0.37285227, 0.6048604, -0.31040096, 0.6314875
359, 561752412, 0.37293714, 0.6048503, -0.3104275, 0.631434
360, 561769079, 0.37300885, 0.6048372, -0.31049234, 0.6313724
361, 561785746, 0.37308702, 0.60476595, -0.3105133, 0.63138396
362, 561802413, 0.37311497, 0.60471857, -0.31052625, 0.63140655
363, 561819080, 0.37313387, 0.60470665, -0.3104914, 0.631424
364, 561835747, 0.37313747, 0.60469544, -0.31043968, 0.6314579
365, 561852414, 0.3731521, 0.604719, -0.3103937, 0.6314494
366, 561869081, 0.37316453, 0.6047254, -0.31035975, 0.6314525
367, 561885748, 0.3731899, 0.60466355, -0.31036338, 0.631495
368, 561902415, 0.3732174, 0.6046177, -0.310351, 0.63152874
369, 561919082, 0.3732528, 0.60456306, -0.31028444, 0.6315928
370, 561935749, 0.37326697, 0.60455775, -0.31025642, 0.6316032
371, 561952416, 0.37327197, 0.6045629, -0.31018627, 0.6316298
372, 561969083, 0.37326592, 0.6045989, -0.3101313, 0.63162595
373, 561985750, 0.37328714, 0.6046007, -0.31009236, 0.6316307
374, 562002417, 0.37327546, 0.6046251, -0.31002936, 0.6316452
375, 562019084, 0.37324733, 0.6046537, -0.30993786, 0.6316794
376, 562035751, 0.3732032, 0.60472316, -0.3098691, 0.6316728
377, 562052418, 0.3731627, 0.60477614, -0.30982208, 0.6316691
378, 562069085, 0.37319067, 0.6047339, -0.30978376, 0.6317118
379, 562085752, 0.37322405, 0.6046968, -0.30970535, 0.6317661
380, 562102419, 0.37325123, 0.6046793, -0.30962455, 0.6318064
381, 562119086, 0.37324324, 0.6047304, -0.3095398, 0.6318035
382, 562135753, 0.3732303, 0.60478616, -0.30946103, 0.6317965
383, 562152420, 0.37324437, 0.60479414, -0.309362, 0.63182896
384, 562169087, 0.37327698, 0.6047584, -0.30929932, 0.63187474
385, 562185754, 0.37332296, 0.60470223, -0.30922958, 0.63193536
386, 562202421, 0.37338042, 0.60465544, -0.30912733, 0.63199633
387, 562219088, 0.37338752, 0.604722, -0.30906644, 0.6319582
388, 562235755, 0.37340555, 0.6047569, -0.30903238, 0.6319307
389, 562252422, 0.37340948, 0.6047549, -0.3090436, 0.6319248
390, 562269089, 0.37343, 0.6047301, -0.30909842, 0.63190955
391, 562285756, 0.37345007, 0.60472786, -0.3091234, 0.6318876
392, 562302423, 0.3734724, 0.60476327, -0.30913818, 0.6318333
393, 562319090, 0.3734761, 0.6048151, -0.30918312, 0.6317595
394, 562335757, 0.37348613, 0.6048593, -0.3092263, 0.6316902
395, 562352424, 0.3734598, 0.6049324, -0.30927625, 0.6316112
396, 562369091, 0.37339148, 0.6049946, -0.30934146, 0.6315602
397, 562385758, 0.37328398, 0.6050417, -0.30938983, 0.63155496
398, 562402425, 0.37315091, 0.6051446, -0.30941603, 0.6315221
399, 562419092, 0.3730306, 0.6052542, -0.3094252, 0.63148373
400, 562435759, 0.3729156, 0.6053065, -0.30941805, 0.6315051
401, 562452426, 0.37280267, 0.6053439, -0.30943945, 0.63152534
402, 562469093, 0.37269002, 0.6053763, -0.3094682, 0.63154674
403, 562485760, 0.37258926, 0.6054381, -0.3095112, 0.6315259
404, 562502427, 0.3724805, 0.60548484, -0.30955037, 0.63152593
405, 562519094, 0.37235504, 0.60555834, -0.30957267, 0.63151854
406, 562535761, 0.3722563, 0.6055897, -0.30964443, 0.6315114
407, 562552428, 0.37217483, 0.6055552, -0.3097208, 0.63155514
408, 562569095, 0.3720996, 0.60554326, -0.30981663, 0.63156396
409, 562585762, 0.37201914, 0.60555935, -0.30989033, 0.6315598
410, 562602429, 0.3719401, 0.60561526, -0.30996743, 0.6315147
411, 562619096, 0.37186164, 0.6056676, -0.31008822, 0.6314515
412, 562635763, 0.37180045, 0.605696, -0.31024212, 0.63138473
413, 562652430, 0.37170756, 0.60575247, -0.3103671, 0.63132393
414, 562669097, 0.37160355, 0.6057948, -0.3104832, 0.6312874
415, 562685764, 0.37153614, 0.6057911, -0.31056806, 0.6312889
416, 562702431, 0.3714749, 0.6058187, -0.3106689, 0.6312489
417, 562719098, 0.37143758, 0.60587925, -0.3107749, 0.63116044
418, 562735765, 0.37141836, 0.60596836, -0.31090352, 0.631023
419, 562752432, 0.3714171, 0.6059881, -0.31104124, 0.63093674
420, 562769099, 0.3714243, 0.60602087, -0.31121424, 0.63081574
421, 562785766, 0.371437, 0.606055, -0.3113371, 0.63071483
422, 562802433, 0.3714498, 0.60610807, -0.31144214, 0.6306045
423, 562819100, 0.37144363, 0.6061677, -0.311542, 0.6305014
424, 562835767, 0.3714054, 0.6062409, -0.3116868, 0.630382
425, 562852434, 0.3713785, 0.6063225, -0.31184947, 0.63023883
426, 562869101, 0.37137038, 0.6064188, -0.3119968, 0.6300781
427, 562885768, 0.37140882, 0.6064658, -0.31215554, 0.6299316
428, 562902435, 0.37148052, 0.6065546, -0.31231022, 0.629727
429, 562919102, 0.3715636, 0.60667735, -0.31241852, 0.6295061
430, 562935769, 0.37164834, 0.6067633, -0.3125245, 0.62932056
431, 562952436, 0.3717805, 0.6066903, -0.3126124, 0.62926924
432, 562969103, 0.3718872, 0.60665244, -0.31268376, 0.6292071
433, 562985770, 0.3719946, 0.6066346, -0.3127011, 0.62915224
434, 563002437, 0.37207714, 0.60660946, -0.31271037, 0.6291231
435, 563019104, 0.37211162, 0.60663795, -0.31267983, 0.6290904
436, 563035771, 0.37212196, 0.6066567, -0.31264552, 0.62908334
437, 563052438, 0.3720738, 0.6067328, -0.31266084, 0.6290309
438, 563069105, 0.37200505, 0.6067759, -0.31267297, 0.6290238
439, 563085772, 0.37196594, 0.60677737, -0.31264976, 0.62905717
440, 563102439, 0.37196934, 0.60675883, -0.31262293, 0.6290862
441, 563119106, 0.37201476, 0.60675365, -0.3125932, 0.6290791
442, 563135773, 0.37208846, 0.60673726, -0.31256074, 0.62906754
443, 563152440, 0.37215143, 0.60672724, -0.3125431, 0.6290487
444, 563169107, 0.37221584, 0.6066789, -0.31253657, 0.6290605
445, 563185774, 0.37225744, 0.6066528, -0.31256515, 0.62904674
446, 563202441, 0.37235537, 0.6065217, -0.3125137, 0.62914073
447, 563219108, 0.3723957, 0.60647154, -0.31248704, 0.62917846
448, 563235775, 0.3724142, 0.606403, -0.31245807, 0.6292481
449, 563252442, 0.37241906, 0.6063442, -0.31237486, 0.6293431
450, 563269109, 0.37243548, 0.606296, -0.31227306, 0.6294304
451, 563285776, 0.37245488, 0.6062498, -0.31218508, 0.62950706
452, 563302443, 0.37245154, 0.6062384, -0.31215298, 0.629536
453, 563319110, 0.37245277, 0.6062135, -0.312129, 0.6295711
454, 563335777, 0.3724501, 0.6062282, -0.31215388, 0.62954617
455, 563352444, 0.37245327, 0.6061851, -0.31214908, 0.62958825
456, 563369111, 0.37246564, 0.6062173, -0.31212667, 0.6295608
457, 563385778, 0.3725234, 0.606229, -0.31209394, 0.62953174
458, 563402445, 0.3726052, 0.6061727, -0.31206614, 0.62955135
459, 563419112, 0.37268907, 0.60610163, -0.31210834, 0.6295491
460, 563435779, 0.3728064, 0.60595423, -0.31212777, 0.62961197
461, 563452446, 0.37289566, 0.60579705, -0.31209716, 0.6297256
462, 563469113, 0.3729399, 0.60573024, -0.31204242, 0.6297907
463, 563485780, 0.37295178, 0.6057137, -0.3119952, 0.62982297
464, 563502447, 0.3729933, 0.6056102, -0.31192562, 0.62993246
465, 563519114, 0.37303773, 0.60547304, -0.31184372, 0.6300784
466, 563535781, 0.37307623, 0.60536176, -0.31181547, 0.6301765
467, 563552448, 0.37311125, 0.60523397, -0.31178248, 0.6302948
468, 563569115, 0.37316078, 0.60514885, -0.3117504, 0.6303631
469, 563585782, 0.37325475, 0.60505575, -0.31169787, 0.63042283
470, 563602449, 0.37334737, 0.6049897, -0.31165308, 0.6304535
471, 563619116, 0.37342662, 0.6049333, -0.31160113, 0.63048637
472, 563635783, 0.3734918, 0.6048869, -0.31155813, 0.63051367
473, 563652450, 0.3735461, 0.6048252, -0.31153166, 0.6305536
474, 563669117, 0.37357047, 0.6047786, -0.3115166, 0.6305913
475, 563685784, 0.37359583, 0.60473955, -0.31147614, 0.6306337
476, 563702451, 0.3736235, 0.60468036, -0.31145933, 0.63068235
477, 563719118, 0.37363863, 0.6046301, -0.31143004, 0.6307361
478, 563735785, 0.37364286, 0.60457593, -0.3114127, 0.63079417
479, 563752452, 0.3736122, 0.60459286, -0.31137952, 0.6308123
480, 563769119, 0.37355235, 0.60463595, -0.31134358, 0.6308242
481, 563785786, 0.37351364, 0.6046138, -0.31131142, 0.63088423
482, 563802453, 0.37347758, 0.60465837, -0.31129384, 0.63087165
483, 563819120, 0.3734597, 0.6046997, -0.31126004, 0.6308593
484, 563835787, 0.37341154, 0.60476524, -0.31125364, 0.6308281
485, 563852454, 0.3733961, 0.6047686, -0.3112283, 0.63084644
486, 563869121, 0.37337157, 0.604745, -0.31119516, 0.63089997
487, 563885788, 0.37334508, 0.6047148, -0.3111755, 0.6309542
488, 563902455, 0.3733362, 0.6046513, -0.31112483, 0.6310454
489, 563919122, 0.37329286, 0.6047024, -0.3111755, 0.6309971
490, 563935789, 0.37326688, 0.6047205, -0.3112195, 0.63097346
491, 563952456, 0.37324005, 0.6047689, -0.31128994, 0.6309082
492, 563969123, 0.37322146, 0.6048163, -0.31131557, 0.63086104
493, 563985790, 0.37320918, 0.6048964, -0.3113291, 0.63078475
494, 564002457, 0.373208, 0.60500073, -0.31133723, 0.63068146
495, 564019124, 0.37320718, 0.6050766, -0.31130612, 0.6306245
496, 564035791, 0.37321597, 0.6051686, -0.3113253, 0.63052154
497, 564052458, 0.37322888, 0.6051916, -0.31131372, 0.6304976
498, 564069125, 0.37319818, 0.60527194, -0.31133926, 0.630426
499, 564085792, 0.3731482, 0.6053486, -0.3113581, 0.6303726
500, 564102459, 0.37314165, 0.6053912, -0.31137562, 0.630327
501, 564119126, 0.37315652, 0.6053875, -0.3113053, 0.63035655
502, 564135793, 0.37318558, 0.6053697, -0.31121248, 0.63040227
503, 564152460, 0.37319386, 0.6053709, -0.31116852, 0.6304178
504, 564169127, 0.37324044, 0.60537845, -0.3111161, 0.63040894
505, 564185794, 0.3733479, 0.6053296, -0.31105778, 0.630421
506, 564202461, 0.3734092, 0.60533184, -0.3109948, 0.6304136
507, 564219128, 0.37344533, 0.605395, -0.31095058, 0.6303533
508, 564235795, 0.37345678, 0.6054617, -0.31094098, 0.6302872
509, 564252462, 0.3735054, 0.6054879, -0.31092113, 0.630243
510, 564269129, 0.37354776, 0.60548425, -0.31092775, 0.6302182
511, 564285796, 0.37357005, 0.6054883, -0.31089658, 0.63021654
512, 564302463, 0.37356976, 0.6055579, -0.31087735, 0.6301591
513, 564319130, 0.37352598, 0.60566634, -0.3107943, 0.6301218
514, 564335797, 0.37343764, 0.60580045, -0.31076655, 0.630059
515, 564352464, 0.37335032, 0.60588425, -0.31076166, 0.6300326
516, 564369131, 0.37321332, 0.6060326, -0.31075022, 0.6299767
517, 564385798, 0.3730748, 0.60618645, -0.31071454, 0.6299284
518, 564402465, 0.37298214, 0.6063052, -0.31067586, 0.629888
519, 564419132, 0.37288916, 0.60646975, -0.31066787, 0.6297885
520, 564435799, 0.37282145, 0.60660017, -0.31066176, 0.6297061
521, 564452466, 0.37275225, 0.606738, -0.31067023, 0.6296101
522, 564469133, 0.3726553, 0.60684645, -0.31066483, 0.6295656
523, 564485800, 0.3726148, 0.60693586, -0.31060943, 0.6295307
524, 564502467, 0.37257257, 0.60701793, -0.31052667, 0.62951744
525, 564519134, 0.37250334, 0.60710245, -0.3104483, 0.62951547
526, 564535801, 0.37242937, 0.607192, -0.31039223, 0.6295005
527, 564552468, 0.3723971, 0.60720193, -0.31032485, 0.6295433
528, 564569135, 0.3723711, 0.6072667, -0.3103037, 0.6295066
529, 564585802, 0.37242982, 0.6072143, -0.31022206, 0.6295627
530, 564602469, 0.3724852, 0.6071902, -0.3101781, 0.6295749
531, 564619136, 0.37252846, 0.607166, -0.31013, 0.6295964
532, 564635803, 0.37256804, 0.6071665, -0.31006882, 0.6296025
533, 564652470, 0.37262452, 0.6071449, -0.31001177, 0.629618
534, 564669137, 0.3726819, 0.60713744, -0.3099493, 0.6296219
535, 564685804, 0.37273467, 0.60714215, -0.30988628, 0.62961715
536, 564702471, 0.37278008, 0.6071548, -0.30984965, 0.6295961
537, 564719138, 0.3728197, 0.60710657, -0.30976748, 0.62965965
538, 564735805, 0.37283567, 0.6070856, -0.3096832, 0.62971187
539, 564752472, 0.3728198, 0.607066, -0.3095859, 0.629788
540, 564769139, 0.37276453, 0.60712206, -0.309572, 0.62977344
541, 564785806, 0.37272245, 0.6071008, -0.3095413, 0.629834
542, 564802473, 0.37266806, 0.60713905, -0.3095702, 0.62981516
543, 564819140, 0.37264377, 0.6071671, -0.30961877, 0.6297785
544, 564835807, 0.3726356, 0.6072205, -0.30966857, 0.6297075
545, 564852474, 0.37265575, 0.60726315, -0.30968794, 0.6296449
546, 564869141, 0.37270072, 0.6072615, -0.3097246, 0.62960184
547, 564885808, 0.37273568, 0.6072586, -0.30976334, 0.6295648
548, 564902475, 0.37275138, 0.6073066, -0.30979046, 0.629496
549, 564919142, 0.3727636, 0.6073681, -0.3097777, 0.6294355
550, 564935809, 0.37275845, 0.60741484, -0.30979252, 0.62938625
551, 564952476, 0.37274992, 0.607452, -0.30981573, 0.6293441
552, 564969143, 0.37272808, 0.6075115, -0.30983588, 0.62928945
553, 564985810, 0.37274364, 0.60753995, -0.3098017, 0.6292696
554, 565002477, 0.37279904, 0.60748297, -0.30975872, 0.62931305
555, 565019144, 0.37280545, 0.6074654, -0.30980685, 0.6293025
556, 565035811, 0.37281713, 0.60740507, -0.3098079, 0.6293533
557, 565052478, 0.37284732, 0.6073448, -0.3097964, 0.6293992
558, 565069145, 0.37288228, 0.60726976, -0.30979192, 0.62945324
559, 565085812, 0.37292698, 0.60721314, -0.30979967, 0.62947756
560, 565102479, 0.37300768, 0.60713714, -0.30981416, 0.62949586
561, 565119146, 0.37308767, 0.60704195, -0.30984446, 0.62952536
562, 565135813, 0.3731379, 0.6069956, -0.3098883, 0.6295187
563, 565152480, 0.3731687, 0.6069565, -0.3099101, 0.6295274
564, 565169147, 0.37320614, 0.6068923, -0.30990863, 0.6295678
565, 565185814, 0.37327048, 0.6068186, -0.30988473, 0.6296125
566, 565202481, 0.3733691, 0.60669637, -0.30984315, 0.62969226
567, 565219148, 0.37347, 0.6065759, -0.30988672, 0.629727
568, 565235815, 0.373548, 0.6064018, -0.30991814, 0.62983304
569, 565252482, 0.3735962, 0.60625255, -0.30992168, 0.62994635
570, 565269149, 0.37368038, 0.60609627, -0.30990607, 0.63005453
571, 565285816, 0.37376747, 0.6060066, -0.3099391, 0.6300728
572, 565302483, 0.37387493, 0.60584813, -0.30995306, 0.6301545
573, 565319150, 0.37392348, 0.60576004, -0.3099936, 0.63019055
574, 565335817, 0.37395054, 0.6056941, -0.31000754, 0.6302311
575, 565352484, 0.37397084, 0.6055643, -0.30999795, 0.6303484
576, 565369151, 0.3740029, 0.60544443, -0.30996555, 0.6304604
577, 565385818, 0.37398872, 0.60539335, -0.3099845, 0.6305086
578, 565402485, 0.3740061, 0.6053081, -0.31004307, 0.6305514
579, 565419152, 0.3739969, 0.6052523, -0.31011364, 0.6305756
580, 565435819, 0.37398902, 0.60517734, -0.31018516, 0.6306171
581, 565452486, 0.37401497, 0.60509855, -0.3102559, 0.6306424
582, 565469153, 0.3740924, 0.6049929, -0.31026703, 0.63069236
583, 565485820, 0.37417832, 0.6049358, -0.31027904, 0.63069034
584, 565502487, 0.37424657, 0.6048665, -0.3102852, 0.6307133
585, 565519154, 0.37424546, 0.6048327, -0.3103367, 0.6307211
586, 565535821, 0.3742155, 0.60481066, -0.31038588, 0.63073575
587, 565552488, 0.37418726, 0.60476935, -0.31042245, 0.63077414
588, 565569155, 0.3741687, 0.6047495, -0.3104592, 0.63078606
589, 565585822, 0.37414992, 0.6047195, -0.31046632, 0.63082236
590, 565602489, 0.3741664, 0.60467243, -0.31046093, 0.6308603
591, 565619156, 0.37416038, 0.60466564, -0.31043804, 0.63088167
592, 565635823, 0.37410754, 0.6047501, -0.31045893, 0.63082176
593, 565652490, 0.3740805, 0.60475516, -0.31045705, 0.63083386
594, 565669157, 0.37403813, 0.60478365, -0.31054363, 0.6307892
595, 565685824, 0.37403303, 0.60473865, -0.31063044, 0.6307925
596, 565702491, 0.374033, 0.60470724, -0.31065327, 0.6308115
597, 565719158, 0.3740363, 0.6047107, -0.31065735, 0.6308041
598, 565735825, 0.3740549, 0.6046829, -0.3106468, 0.630825
599, 565752492, 0.37403718, 0.6047042, -0.3106893, 0.63079417
600, 565769159, 0.37399706, 0.6047234, -0.31074816, 0.6307705
601, 565785826, 0.37393162, 0.6047778, -0.31080186, 0.6307307
602, 565802493, 0.37388998, 0.6047925, -0.31081814, 0.6307334
603, 565819160, 0.3738552, 0.60481536, -0.3108239, 0.63072926
604, 565835827, 0.3738167, 0.6048685, -0.31079137, 0.63071704
605, 565852494, 0.37375703, 0.60491335, -0.31074205, 0.6307336
606, 565869161, 0.37366495, 0.6049565, -0.3106937, 0.63077056
607, 565885828, 0.373533, 0.6050395, -0.31066313, 0.63078433
608, 565902495, 0.37341416, 0.6051582, -0.31062958, 0.6307572
609, 565919162, 0.3733397, 0.6052693, -0.31057993, 0.63071924
610, 565935829, 0.37331945, 0.6053659, -0.310501, 0.6306774
611, 565952496, 0.37334448, 0.6054175, -0.3104875, 0.6306196
612, 565969163, 0.37332147, 0.6054388, -0.31049156, 0.6306107
613, 565985830, 0.373261, 0.60548115, -0.31049687, 0.6306034
614, 566002497, 0.3731957, 0.60556775, -0.3104955, 0.63055944
615, 566019164, 0.3731323, 0.6057413, -0.31060424, 0.6303767
616, 566035831, 0.37323657, 0.60564065, -0.31061253, 0.63040763
617, 566052498, 0.37335843, 0.6055938, -0.31067002, 0.6303522
618, 566069165, 0.37350732, 0.60547334, -0.3106509, 0.6303891
619, 566085832, 0.3736203, 0.60541695, -0.31067774, 0.63036305
620, 566102499, 0.373727, 0.6053386, -0.31071395, 0.63035715
621, 566119166, 0.3738397, 0.60522294, -0.3107352, 0.630391
622, 566135833, 0.3739223, 0.6051788, -0.31076127, 0.6303716
623, 566152500, 0.37396568, 0.60518235, -0.31078228, 0.630332
624, 566169167, 0.37396812, 0.60519457, -0.31080028, 0.63030994
625, 566185834, 0.37397403, 0.6051862, -0.31080753, 0.6303109
626, 566202501, 0.3739923, 0.6051385, -0.31075528, 0.63037163
627, 566219168, 0.37398326, 0.6051377, -0.31071007, 0.63039994
628, 566235835, 0.37393838, 0.60515785, -0.31067032, 0.6304269
629, 566252502, 0.3739178, 0.605167, -0.3106167, 0.63045675
630, 566269169, 0.37397593, 0.6051098, -0.31061625, 0.6304775
631, 566285836, 0.37406623, 0.6050478, -0.31061065, 0.630486
632, 566302503, 0.37419158, 0.6049281, -0.31057063, 0.6305462
633, 566319170, 0.37427595, 0.6048391, -0.3105582, 0.63058776
634, 566335837, 0.37433967, 0.604771, -0.3105133, 0.6306374
